pos,corr_resp,trials.thisRepN,trials.thisTrialN,trials.thisN,trials.thisIndex,trials_2.thisRepN,trials_2.thisTrialN,trials_2.thisN,trials_2.thisIndex,thisRow.t,notes,trial.started,fixation.started,line1.started,line2.started,line3.started,line4.started,fixation.stopped,probe.started,key_resp.started,trial.stopped,key_resp.keys,key_resp.corr,key_resp.rt,key_resp.duration,participant,session,date,expName,psychopyVersion,frameRate,expStart
-50,x,0,0,0,0,,,,,0.0421193,,0.0298392,0.0421193,1.0091295,1.0091295,1.0091295,1.0091295,1.0420361,2.0099066,2.0099066,3.0989851,x,1,1.0717156,None,568810,1,2024-10-11_19h04.27.544,MotorSequenceLearning,2024.1.5,None,2024-10-11 19h04.31.260832 +0530
150,v,0,1,1,1,,,,,3.1112165,,3.099977,3.1112165,4.1120649,4.1120649,4.1120649,4.1120649,4.1120649,5.1134949,5.1134949,5.4151282,v,1,0.2895264,None,568810,1,2024-10-11_19h04.27.544,MotorSequenceLearning,2024.1.5,None,2024-10-11 19h04.31.260832 +0530
50,c,0,2,2,2,,,,,5.4302709,,5.4158315,5.4302709,6.4315491,6.4315491,6.4315491,6.4315491,6.4315491,7.4157171,7.4157171,7.6668834,c,1,0.2437183,None,568810,1,2024-10-11_19h04.27.544,MotorSequenceLearning,2024.1.5,None,2024-10-11 19h04.31.260832 +0530
-150,z,0,3,3,3,,,,,7.7488805,,7.6676583,7.7488805,8.667445,8.667445,8.667445,8.667445,8.7507825,9.6683979,9.6683979,9.9207825,z,1,0.2504361,None,568810,1,2024-10-11_19h04.27.544,MotorSequenceLearning,2024.1.5,None,2024-10-11 19h04.31.260832 +0530
-50,x,1,0,4,0,,,,,9.9352317,,9.9214209,9.9352317,10.9364514,10.9364514,10.9364514,10.9364514,10.9364514,11.9205355,11.9205355,12.4060405,x,1,0.4762011,None,568810,1,2024-10-11_19h04.27.544,MotorSequenceLearning,2024.1.5,None,2024-10-11 19h04.31.260832 +0530
150,v,1,1,5,1,,,,,12.4214589,,12.4068064,12.4214589,13.4058935,13.4058935,13.4058935,13.4058935,13.4228606,14.4070081,14.4070081,14.6589976,v,1,0.249403,None,568810,1,2024-10-11_19h04.27.544,MotorSequenceLearning,2024.1.5,None,2024-10-11 19h04.31.260832 +0530
50,c,1,2,6,2,,,,,14.6740183,,14.6597239,14.6740183,15.6584905,15.6584905,15.6584905,15.6584905,15.6751691,16.6602684,16.6602684,16.7941375,c,1,0.1212303,None,568810,1,2024-10-11_19h04.27.544,MotorSequenceLearning,2024.1.5,None,2024-10-11 19h04.31.260832 +0530
-150,z,1,3,7,3,,,,,16.8095316,,16.7949817,16.8095316,17.7939937,17.7939937,17.7939937,17.7939937,17.810874,18.795006,18.795006,19.0633519,z,1,0.2665479,None,568810,1,2024-10-11_19h04.27.544,MotorSequenceLearning,2024.1.5,None,2024-10-11 19h04.31.260832 +0530
-50,x,2,0,8,0,,,,,19.0786642,,19.0642507,19.0786642,20.0631826,20.0631826,20.0631826,20.0631826,20.0800233,21.0650386,21.0650386,21.0990465,x,1,0.0267296,None,568810,1,2024-10-11_19h04.27.544,MotorSequenceLearning,2024.1.5,None,2024-10-11 19h04.31.260832 +0530
150,v,2,1,9,1,,,,,21.1142987,,21.0997253,21.1142987,22.099029,22.099029,22.099029,22.099029,22.1161401,23.1003034,23.1003034,23.734942,v,1,0.6192421,None,568810,1,2024-10-11_19h04.27.544,MotorSequenceLearning,2024.1.5,None,2024-10-11 19h04.31.260832 +0530
50,c,2,2,10,2,,,,,23.7505894,,23.7355722,23.7505894,24.7354672,24.7354672,24.7354672,24.7354672,24.7519342,25.7363488,25.7363488,26.0375116,c,1,0.2874877,None,568810,1,2024-10-11_19h04.27.544,MotorSequenceLearning,2024.1.5,None,2024-10-11 19h04.31.260832 +0530
-150,z,2,3,11,3,,,,,26.0527223,,26.0381524,26.0527223,27.0380697,27.0380697,27.0380697,27.0380697,27.0542627,28.0383848,28.0383848,28.2902279,z,1,0.2365663,None,568810,1,2024-10-11_19h04.27.544,MotorSequenceLearning,2024.1.5,None,2024-10-11 19h04.31.260832 +0530
-50,x,3,0,12,0,,,,,28.3053446,,28.2908647,28.3053446,29.2901897,29.2901897,29.2901897,29.2901897,29.3068296,30.2914583,30.2914583,30.5428162,x,1,0.2446995,None,568810,1,2024-10-11_19h04.27.544,MotorSequenceLearning,2024.1.5,None,2024-10-11 19h04.31.260832 +0530
150,v,3,1,13,1,,,,,30.5580521,,30.5436617,30.5580521,31.5596659,31.5596659,31.5596659,31.5596659,31.5596659,32.5434868,32.5434868,32.6619833,v,1,0.1161664,None,568810,1,2024-10-11_19h04.27.544,MotorSequenceLearning,2024.1.5,None,2024-10-11 19h04.31.260832 +0530
50,c,3,2,14,2,,,,,32.6773841,,32.6626783,32.6773841,33.6614965,33.6614965,33.6614965,33.6614965,33.6784186,34.6623612,34.6623612,34.9639641,c,1,0.2996531,None,568810,1,2024-10-11_19h04.27.544,MotorSequenceLearning,2024.1.5,None,2024-10-11 19h04.31.260832 +0530
-150,z,3,3,15,3,,,,,34.9795726,,34.9646022,34.9795726,35.9640807,35.9640807,35.9640807,35.9640807,35.981117,36.965224,36.965224,37.2168351,z,1,0.2440803,None,568810,1,2024-10-11_19h04.27.544,MotorSequenceLearning,2024.1.5,None,2024-10-11 19h04.31.260832 +0530
-50,x,4,0,16,0,,,,,37.2319661,,37.2174738,37.2319661,38.216268,38.216268,38.216268,38.216268,38.2331067,39.2174844,39.2174844,40.0196068,x,1,0.792518,None,568810,1,2024-10-11_19h04.27.544,MotorSequenceLearning,2024.1.5,None,2024-10-11 19h04.31.260832 +0530
150,v,4,1,17,1,,,,,40.0352494,,40.0203833,40.0352494,41.0195677,41.0195677,41.0195677,41.0195677,41.0364061,42.0208517,42.0208517,42.7558633,v,1,0.7302044,None,568810,1,2024-10-11_19h04.27.544,MotorSequenceLearning,2024.1.5,None,2024-10-11 19h04.31.260832 +0530
50,c,4,2,18,2,,,,,42.7715884,,42.756551,42.7715884,43.7558478,43.7558478,43.7558478,43.7558478,43.7725467,44.7569944,44.7569944,45.292123,c,1,0.5230649,None,568810,1,2024-10-11_19h04.27.544,MotorSequenceLearning,2024.1.5,None,2024-10-11 19h04.31.260832 +0530
-150,z,4,3,19,3,,,,,45.3076006,,45.2927611,45.3076006,46.2918568,46.2918568,46.2918568,46.2918568,46.3087281,47.2933096,47.2933096,47.511088,z,1,0.2022133,None,568810,1,2024-10-11_19h04.27.544,MotorSequenceLearning,2024.1.5,None,2024-10-11 19h04.31.260832 +0530
-50,x,5,0,20,0,,,,,47.5264284,,47.5118083,47.5264284,48.5112063,48.5112063,48.5112063,48.5112063,48.5279414,49.512281,49.512281,49.8308525,x,1,0.3050117,None,568810,1,2024-10-11_19h04.27.544,MotorSequenceLearning,2024.1.5,None,2024-10-11 19h04.31.260832 +0530
150,v,5,1,21,1,,,,,49.846032,,49.8315333,49.846032,50.8301817,50.8301817,50.8301817,50.8301817,50.8472996,51.8317713,51.8317713,52.1163417,v,1,0.2725606,None,568810,1,2024-10-11_19h04.27.544,MotorSequenceLearning,2024.1.5,None,2024-10-11 19h04.31.260832 +0530
50,c,5,2,22,2,,,,,52.131788,,52.1170333,52.131788,53.1166478,53.1166478,53.1166478,53.1166478,53.1328812,54.1174059,54.1174059,54.3859591,c,1,0.2655173,None,568810,1,2024-10-11_19h04.27.544,MotorSequenceLearning,2024.1.5,None,2024-10-11 19h04.31.260832 +0530
-150,z,5,3,23,3,,,,,54.4011323,,54.3867955,54.4011323,55.3852161,55.3852161,55.3852161,55.3852161,55.4019582,56.3865601,56.3865601,56.6381253,z,1,0.2466655,None,568810,1,2024-10-11_19h04.27.544,MotorSequenceLearning,2024.1.5,None,2024-10-11 19h04.31.260832 +0530
-50,x,6,0,24,0,,,,,56.6535529,,56.6388067,56.6535529,57.6379499,57.6379499,57.6379499,57.6379499,57.6545342,58.6391235,58.6391235,58.9077167,x,1,0.2643288,None,568810,1,2024-10-11_19h04.27.544,MotorSequenceLearning,2024.1.5,None,2024-10-11 19h04.31.260832 +0530
150,v,6,1,25,1,,,,,58.9225385,,58.908474,58.9225385,59.9235888,59.9235888,59.9235888,59.9235888,59.9235888,60.9080715,60.9080715,61.2599344,v,1,0.3392078,None,568810,1,2024-10-11_19h04.27.544,MotorSequenceLearning,2024.1.5,None,2024-10-11 19h04.31.260832 +0530
50,c,6,2,26,2,,,,,61.2750786,,61.2607755,61.2750786,62.2595648,62.2595648,62.2595648,62.2595648,62.2766292,63.2610747,63.2610747,63.5458019,c,1,0.2684262,None,568810,1,2024-10-11_19h04.27.544,MotorSequenceLearning,2024.1.5,None,2024-10-11 19h04.31.260832 +0530
-150,z,6,3,27,3,,,,,63.5613511,,63.546501,63.5613511,64.5453658,64.5453658,64.5453658,64.5453658,64.5623916,65.5470391,65.5470391,66.3488054,z,1,0.7931159,None,568810,1,2024-10-11_19h04.27.544,MotorSequenceLearning,2024.1.5,None,2024-10-11 19h04.31.260832 +0530
-50,x,7,0,28,0,,,,,66.3643808,,66.3494892,66.3643808,67.348973,67.348973,67.348973,67.348973,67.3657647,68.3498062,68.3498062,68.5186158,x,1,0.1667863,None,568810,1,2024-10-11_19h04.27.544,MotorSequenceLearning,2024.1.5,None,2024-10-11 19h04.31.260832 +0530
150,v,7,1,29,1,,,,,68.5334691,,68.5192943,68.5334691,69.5341029,69.5341029,69.5341029,69.5341029,69.5341029,70.5189431,70.5189431,70.8201973,v,1,0.2874835,None,568810,1,2024-10-11_19h04.27.544,MotorSequenceLearning,2024.1.5,None,2024-10-11 19h04.31.260832 +0530
50,c,7,2,30,2,,,,,70.8356462,,70.8208458,70.8356462,71.8199831,71.8199831,71.8199831,71.8199831,71.8369557,72.8212228,72.8212228,73.1061715,c,1,0.2808395,None,568810,1,2024-10-11_19h04.27.544,MotorSequenceLearning,2024.1.5,None,2024-10-11 19h04.31.260832 +0530
-150,z,7,3,31,3,,,,,73.12146,,73.1070872,73.12146,74.1057574,74.1057574,74.1057574,74.1057574,74.1227553,75.1071643,75.1071643,75.4427714,z,1,0.3256039,None,568810,1,2024-10-11_19h04.27.544,MotorSequenceLearning,2024.1.5,None,2024-10-11 19h04.31.260832 +0530
-50,x,8,0,32,0,,,,,75.4573122,,75.4434645,75.4573122,76.4590932,76.4590932,76.4590932,76.4590932,76.4590932,77.4431568,77.4431568,77.6950304,x,1,0.2480608,None,568810,1,2024-10-11_19h04.27.544,MotorSequenceLearning,2024.1.5,None,2024-10-11 19h04.31.260832 +0530
150,v,8,1,33,1,,,,,77.7101742,,77.6958252,77.7101742,78.71098,78.71098,78.71098,78.71098,78.71098,79.6961243,79.6961243,79.9470268,v,1,0.2350719,None,568810,1,2024-10-11_19h04.27.544,MotorSequenceLearning,2024.1.5,None,2024-10-11 19h04.31.260832 +0530
50,c,8,2,34,2,,,,,79.9657726,,79.9476969,79.9657726,80.9468743,80.9468743,80.9468743,80.9468743,80.9800748,81.9484388,81.9484388,82.2331641,c,1,0.2774604,None,568810,1,2024-10-11_19h04.27.544,MotorSequenceLearning,2024.1.5,None,2024-10-11 19h04.31.260832 +0530
-150,z,8,3,35,3,,,,,82.2480758,,82.2338026,82.2480758,83.2325745,83.2325745,83.2325745,83.2325745,83.2498813,84.2338667,84.2338667,84.4855953,z,1,0.2497193,None,568810,1,2024-10-11_19h04.27.544,MotorSequenceLearning,2024.1.5,None,2024-10-11 19h04.31.260832 +0530
-50,x,9,0,36,0,,,,,84.5010216,,84.4863617,84.5010216,85.501651,85.501651,85.501651,85.501651,85.501651,86.4864848,86.4864848,86.7878647,x,1,0.2844176,None,568810,1,2024-10-11_19h04.27.544,MotorSequenceLearning,2024.1.5,None,2024-10-11 19h04.31.260832 +0530
150,v,9,1,37,1,,,,,86.8031195,,86.7886571,86.8031195,87.7895073,87.7895073,87.7895073,87.7895073,87.8046271,88.7957191,88.7957191,89.1235046,v,1,0.3110134,None,568810,1,2024-10-11_19h04.27.544,MotorSequenceLearning,2024.1.5,None,2024-10-11 19h04.31.260832 +0530
50,c,9,2,38,2,,,,,89.139017,,89.1243897,89.139017,90.1239983,90.1239983,90.1239983,90.1239983,90.1404308,91.1248512,91.1248512,91.4266367,c,1,0.2853007,None,568810,1,2024-10-11_19h04.27.544,MotorSequenceLearning,2024.1.5,None,2024-10-11 19h04.31.260832 +0530
-150,z,9,3,39,3,,,,,91.4417246,,91.4275134,91.4417246,92.4265273,92.4265273,92.4265273,92.4265273,92.443122,93.4276098,93.4276098,93.8293269,z,1,0.3983214,None,568810,1,2024-10-11_19h04.27.544,MotorSequenceLearning,2024.1.5,None,2024-10-11 19h04.31.260832 +0530
-50,x,10,0,40,0,,,,,93.8444815,,93.8300264,93.8444815,94.8289952,94.8289952,94.8289952,94.8289952,94.8456422,95.8302033,95.8302033,96.1814395,x,1,0.3375523,None,568810,1,2024-10-11_19h04.27.544,MotorSequenceLearning,2024.1.5,None,2024-10-11 19h04.31.260832 +0530
150,v,10,1,41,1,,,,,96.1973688,,96.1820719,96.1973688,97.1817512,97.1817512,97.1817512,97.1817512,97.198337,98.1823483,98.1823483,98.7679328,v,1,0.5713989,None,568810,1,2024-10-11_19h04.27.544,MotorSequenceLearning,2024.1.5,None,2024-10-11 19h04.31.260832 +0530
50,c,10,2,42,2,,,,,98.7830936,,98.7687166,98.7830936,99.7672039,99.7672039,99.7672039,99.7672039,99.7842909,100.768398,100.768398,101.0702328,c,1,0.2938241,None,568810,1,2024-10-11_19h04.27.544,MotorSequenceLearning,2024.1.5,None,2024-10-11 19h04.31.260832 +0530
-150,z,10,3,43,3,,,,,101.0856369,,101.0711086,101.0856369,102.0705167,102.0705167,102.0705167,102.0705167,102.08712,103.0714007,103.0714007,103.3231353,z,1,0.2500117,None,568810,1,2024-10-11_19h04.27.544,MotorSequenceLearning,2024.1.5,None,2024-10-11 19h04.31.260832 +0530
-50,x,11,0,44,0,,,,,103.338173,,103.3238309,103.338173,104.3231021,104.3231021,104.3231021,104.3231021,104.339221,105.3238631,105.3238631,105.541971,x,1,0.2058452,None,568810,1,2024-10-11_19h04.27.544,MotorSequenceLearning,2024.1.5,None,2024-10-11 19h04.31.260832 +0530
150,v,11,1,45,1,,,,,105.5570357,,105.542612,105.5570357,106.5415004,106.5415004,106.5415004,106.5415004,106.5580398,107.5427569,107.5427569,107.8275943,v,1,0.2737808,None,568810,1,2024-10-11_19h04.27.544,MotorSequenceLearning,2024.1.5,None,2024-10-11 19h04.31.260832 +0530
50,c,11,2,46,2,,,,,107.8431241,,107.828228,107.8431241,108.8275254,108.8275254,108.8275254,108.8275254,108.8443562,109.8289232,109.8289232,110.1636066,c,1,0.3241851,None,568810,1,2024-10-11_19h04.27.544,MotorSequenceLearning,2024.1.5,None,2024-10-11 19h04.31.260832 +0530
-150,z,11,3,47,3,,,,,110.1790637,,110.1644449,110.1790637,111.1636909,111.1636909,111.1636909,111.1636909,111.1808908,112.1645302,112.1645302,112.466171,z,1,0.2911566,None,568810,1,2024-10-11_19h04.27.544,MotorSequenceLearning,2024.1.5,None,2024-10-11 19h04.31.260832 +0530
-50,x,12,0,48,0,,,,,112.4817589,,112.4669,112.4817589,113.4658325,113.4658325,113.4658325,113.4658325,113.4829292,114.4671464,114.4671464,114.7854759,x,1,0.302029,None,568810,1,2024-10-11_19h04.27.544,MotorSequenceLearning,2024.1.5,None,2024-10-11 19h04.31.260832 +0530
150,v,12,1,49,1,,,,,114.8010292,,114.7862147,114.8010292,115.7862176,115.7862176,115.7862176,115.7862176,115.8022837,116.7863275,116.7863275,117.1212816,v,1,0.3177518,None,568810,1,2024-10-11_19h04.27.544,MotorSequenceLearning,2024.1.5,None,2024-10-11 19h04.31.260832 +0530
50,c,12,2,50,2,,,,,117.1368871,,117.1222249,117.1368871,118.1377223,118.1377223,118.1377223,118.1377223,118.1377223,119.122274,119.122274,119.4243333,c,1,0.293826,None,568810,1,2024-10-11_19h04.27.544,MotorSequenceLearning,2024.1.5,None,2024-10-11 19h04.31.260832 +0530
-150,z,12,3,51,3,,,,,119.4395746,,119.425058,119.4395746,120.4405395,120.4405395,120.4405395,120.4405395,120.4405395,121.4249034,121.4249034,121.7095468,z,1,0.2690695,None,568810,1,2024-10-11_19h04.27.544,MotorSequenceLearning,2024.1.5,None,2024-10-11 19h04.31.260832 +0530
-50,x,13,0,52,0,,,,,121.7250752,,121.71018,121.7250752,122.7099435,122.7099435,122.7099435,122.7099435,122.7264902,123.7105216,123.7105216,123.9792588,x,1,0.2586368,None,568810,1,2024-10-11_19h04.27.544,MotorSequenceLearning,2024.1.5,None,2024-10-11 19h04.31.260832 +0530
150,v,13,1,53,1,,,,,123.9943516,,123.9800011,123.9943516,124.9789911,124.9789911,124.9789911,124.9789911,124.9951639,125.9802124,125.9802124,126.4483702,v,1,0.4594616,None,568810,1,2024-10-11_19h04.27.544,MotorSequenceLearning,2024.1.5,None,2024-10-11 19h04.31.260832 +0530
50,c,13,2,54,2,,,,,126.4637986,,126.4491933,126.4637986,127.4484481,127.4484481,127.4484481,127.4484481,127.4648704,128.4491932,128.4491932,128.8177621,c,1,0.3549903,None,568810,1,2024-10-11_19h04.27.544,MotorSequenceLearning,2024.1.5,None,2024-10-11 19h04.31.260832 +0530
-150,z,13,3,55,3,,,,,128.8327239,,128.8186271,128.8327239,129.8182677,129.8182677,129.8182677,129.8182677,129.8345183,130.8186257,130.8186257,131.1203452,z,1,0.2899117,None,568810,1,2024-10-11_19h04.27.544,MotorSequenceLearning,2024.1.5,None,2024-10-11 19h04.31.260832 +0530
-50,x,14,0,56,0,,,,,131.1353671,,131.1209843,131.1353671,132.1196,132.1196,132.1196,132.1196,132.1368733,133.1212189,133.1212189,133.4392846,x,1,0.3135478,None,568810,1,2024-10-11_19h04.27.544,MotorSequenceLearning,2024.1.5,None,2024-10-11 19h04.31.260832 +0530
150,v,14,1,57,1,,,,,133.4546498,,133.4399262,133.4546498,134.4396354,134.4396354,134.4396354,134.4396354,134.4557676,135.4408257,135.4408257,135.8751632,v,1,0.4276586,None,568810,1,2024-10-11_19h04.27.544,MotorSequenceLearning,2024.1.5,None,2024-10-11 19h04.31.260832 +0530
50,c,14,2,58,2,,,,,135.8910434,,135.8758069,135.8910434,136.8750403,136.8750403,136.8750403,136.8750403,136.8917317,137.8765917,137.8765917,138.27795,c,1,0.3962348,None,568810,1,2024-10-11_19h04.27.544,MotorSequenceLearning,2024.1.5,None,2024-10-11 19h04.31.260832 +0530
-150,z,14,3,59,3,,,,,138.2931637,,138.2786503,138.2931637,139.2777892,139.2777892,139.2777892,139.2777892,139.2951991,140.2789584,140.2789584,140.5807795,z,1,0.2978438,None,568810,1,2024-10-11_19h04.27.544,MotorSequenceLearning,2024.1.5,None,2024-10-11 19h04.31.260832 +0530
-50,x,15,0,60,0,,,,,140.5962665,,140.5815524,140.5962665,141.5804404,141.5804404,141.5804404,141.5804404,141.5970532,142.5817323,142.5817323,142.8495619,x,1,0.252603,None,568810,1,2024-10-11_19h04.27.544,MotorSequenceLearning,2024.1.5,None,2024-10-11 19h04.31.260832 +0530
150,v,15,1,61,1,,,,,142.86529,,142.8502617,142.86529,143.8500835,143.8500835,143.8500835,143.8500835,143.8663712,144.8508743,144.8508743,145.135854,v,1,0.2740019,None,568810,1,2024-10-11_19h04.27.544,MotorSequenceLearning,2024.1.5,None,2024-10-11 19h04.31.260832 +0530
50,c,15,2,62,2,,,,,145.1511438,,145.1365043,145.1511438,146.1356653,146.1356653,146.1356653,146.1356653,146.1521683,147.1363755,147.1363755,147.4214633,c,1,0.2698312,None,568810,1,2024-10-11_19h04.27.544,MotorSequenceLearning,2024.1.5,None,2024-10-11 19h04.31.260832 +0530
-150,z,15,3,63,3,,,,,147.4368539,,147.4221001,147.4368539,148.438153,148.438153,148.438153,148.438153,148.438153,149.4224252,149.4224252,149.7241009,z,1,0.2918873,None,568810,1,2024-10-11_19h04.27.544,MotorSequenceLearning,2024.1.5,None,2024-10-11 19h04.31.260832 +0530
-50,x,16,0,64,0,,,,,149.7394729,,149.7249163,149.7394729,150.7235662,150.7235662,150.7235662,150.7235662,150.7409154,151.725581,151.725581,151.9764697,x,1,0.2416798,None,568810,1,2024-10-11_19h04.27.544,MotorSequenceLearning,2024.1.5,None,2024-10-11 19h04.31.260832 +0530
150,v,16,1,65,1,,,,,151.9918642,,151.977159,151.9918642,152.9761934,152.9761934,152.9761934,152.9761934,152.9928451,153.9776973,153.9776973,154.2622433,v,1,0.2695141,None,568810,1,2024-10-11_19h04.27.544,MotorSequenceLearning,2024.1.5,None,2024-10-11 19h04.31.260832 +0530
50,c,16,2,66,2,,,,,154.2776969,,154.2628893,154.2776969,155.262368,155.262368,155.262368,155.262368,155.2789674,156.2630533,156.2630533,156.5313112,c,1,0.2520951,None,568810,1,2024-10-11_19h04.27.544,MotorSequenceLearning,2024.1.5,None,2024-10-11 19h04.31.260832 +0530
-150,z,16,3,67,3,,,,,156.5469016,,156.5319503,156.5469016,157.5312539,157.5312539,157.5312539,157.5312539,157.5482001,158.5321089,158.5321089,158.8170837,z,1,0.2786295,None,568810,1,2024-10-11_19h04.27.544,MotorSequenceLearning,2024.1.5,None,2024-10-11 19h04.31.260832 +0530
-50,x,17,0,68,0,,,,,158.8326475,,158.8179083,158.8326475,159.8174203,159.8174203,159.8174203,159.8174203,159.8344348,160.8182596,160.8182596,161.0362657,x,1,0.2017953,None,568810,1,2024-10-11_19h04.27.544,MotorSequenceLearning,2024.1.5,None,2024-10-11 19h04.31.260832 +0530
150,v,17,1,69,1,,,,,161.0518261,,161.0369153,161.0518261,162.0360207,162.0360207,162.0360207,162.0360207,162.0529586,163.0371661,163.0371661,163.3559088,v,1,0.3060418,None,568810,1,2024-10-11_19h04.27.544,MotorSequenceLearning,2024.1.5,None,2024-10-11 19h04.31.260832 +0530
50,c,17,2,70,2,,,,,163.3709555,,163.3567324,163.3709555,164.3722424,164.3722424,164.3722424,164.3722424,164.3722424,165.3564539,165.3564539,165.608129,c,1,0.2386661,None,568810,1,2024-10-11_19h04.27.544,MotorSequenceLearning,2024.1.5,None,2024-10-11 19h04.31.260832 +0530
-150,z,17,3,71,3,,,,,165.6237538,,165.6092017,165.6237538,166.6082639,166.6082639,166.6082639,166.6082639,166.6251046,167.6087892,167.6087892,167.8769383,z,1,0.252813,None,568810,1,2024-10-11_19h04.27.544,MotorSequenceLearning,2024.1.5,None,2024-10-11 19h04.31.260832 +0530
-50,x,18,0,72,0,,,,,167.892565,,167.877663,167.892565,168.8770304,168.8770304,168.8770304,168.8770304,168.8939278,169.8781992,169.8781992,170.2296016,x,1,0.3381508,None,568810,1,2024-10-11_19h04.27.544,MotorSequenceLearning,2024.1.5,None,2024-10-11 19h04.31.260832 +0530
150,v,18,1,73,1,,,,,170.2452035,,170.2302522,170.2452035,171.2297191,171.2297191,171.2297191,171.2297191,171.2463099,172.2307188,172.2307188,172.4829761,v,1,0.2409171,None,568810,1,2024-10-11_19h04.27.544,MotorSequenceLearning,2024.1.5,None,2024-10-11 19h04.31.260832 +0530
50,c,18,2,74,2,,,,,172.4977704,,172.4837156,172.4977704,173.4987159,173.4987159,173.4987159,173.4987159,173.4987159,174.4829475,174.4829475,175.0517374,c,1,0.5552585,None,568810,1,2024-10-11_19h04.27.544,MotorSequenceLearning,2024.1.5,None,2024-10-11 19h04.31.260832 +0530
-150,z,18,3,75,3,,,,,175.0671494,,175.0523827,175.0671494,176.0516849,176.0516849,176.0516849,176.0516849,176.0684039,177.0527117,177.0527117,177.3540621,z,1,0.2860872,None,568810,1,2024-10-11_19h04.27.544,MotorSequenceLearning,2024.1.5,None,2024-10-11 19h04.31.260832 +0530
-50,x,19,0,76,0,,,,,177.3696489,,177.354711,177.3696489,178.3569838,178.3569838,178.3569838,178.3569838,178.3707247,179.3555067,179.3555067,179.623663,x,1,0.2640236,None,568810,1,2024-10-11_19h04.27.544,MotorSequenceLearning,2024.1.5,None,2024-10-11 19h04.31.260832 +0530
150,v,19,1,77,1,,,,,179.6389642,,179.62431,179.6389642,180.6243218,180.6243218,180.6243218,180.6243218,180.6402606,181.6242667,181.6242667,181.8757603,v,1,0.2468188,None,568810,1,2024-10-11_19h04.27.544,MotorSequenceLearning,2024.1.5,None,2024-10-11 19h04.31.260832 +0530
50,c,19,2,78,2,,,,,181.8916505,,181.8764041,181.8916505,182.8759783,182.8759783,182.8759783,182.8759783,182.8925666,183.8768028,183.8768028,183.9955524,c,1,0.108084,None,568810,1,2024-10-11_19h04.27.544,MotorSequenceLearning,2024.1.5,None,2024-10-11 19h04.31.260832 +0530
-150,z,19,3,79,3,,,,,184.010303,,183.9962206,184.010303,185.0119339,185.0119339,185.0119339,185.0119339,185.0119339,185.995952,185.995952,186.0471305,z,1,0.0375474,None,568810,1,2024-10-11_19h04.27.544,MotorSequenceLearning,2024.1.5,None,2024-10-11 19h04.31.260832 +0530
-50,x,20,0,80,0,,,,,186.0626829,,186.0477726,186.0626829,187.0469806,187.0469806,187.0469806,187.0469806,187.0637073,188.0485109,188.0485109,188.1997674,x,1,0.1492519,None,568810,1,2024-10-11_19h04.27.544,MotorSequenceLearning,2024.1.5,None,2024-10-11 19h04.31.260832 +0530
150,v,20,1,81,1,,,,,188.2151541,,188.200619,188.2151541,189.1995953,189.1995953,189.1995953,189.1995953,189.21621,190.2007927,190.2007927,190.4353493,v,1,0.2272821,None,568810,1,2024-10-11_19h04.27.544,MotorSequenceLearning,2024.1.5,None,2024-10-11 19h04.31.260832 +0530
50,c,20,2,82,2,,,,,190.4509192,,190.4361118,190.4509192,191.4356132,191.4356132,191.4356132,191.4356132,191.4520293,192.4364637,192.4364637,192.6878835,c,1,0.2435912,None,568810,1,2024-10-11_19h04.27.544,MotorSequenceLearning,2024.1.5,None,2024-10-11 19h04.31.260832 +0530
-150,z,20,3,83,3,,,,,192.7033068,,192.688754,192.7033068,193.6880011,193.6880011,193.6880011,193.6880011,193.7048912,194.6886992,194.6886992,194.9404228,z,1,0.2351447,None,568810,1,2024-10-11_19h04.27.544,MotorSequenceLearning,2024.1.5,None,2024-10-11 19h04.31.260832 +0530
-50,x,21,0,84,0,,,,,194.9556576,,194.9410612,194.9556576,195.9407878,195.9407878,195.9407878,195.9407878,195.9569584,196.9417099,196.9417099,197.2594534,x,1,0.3049207,None,568810,1,2024-10-11_19h04.27.544,MotorSequenceLearning,2024.1.5,None,2024-10-11 19h04.31.260832 +0530
150,v,21,1,85,1,,,,,197.2751389,,197.2601977,197.2751389,198.259805,198.259805,198.259805,198.259805,198.2761268,199.2638437,199.2638437,199.512147,v,1,0.2312249,None,568810,1,2024-10-11_19h04.27.544,MotorSequenceLearning,2024.1.5,None,2024-10-11 19h04.31.260832 +0530
50,c,21,2,86,2,,,,,199.5272693,,199.512837,199.5272693,200.5120656,200.5120656,200.5120656,200.5120656,200.5285711,201.5130996,201.5130996,201.7648978,c,1,0.239522,None,568810,1,2024-10-11_19h04.27.544,MotorSequenceLearning,2024.1.5,None,2024-10-11 19h04.31.260832 +0530
-150,z,21,3,87,3,,,,,201.7798963,,201.7655825,201.7798963,202.7644903,202.7644903,202.7644903,202.7644903,202.7811247,203.7663112,203.7663112,204.016656,z,1,0.2382858,None,568810,1,2024-10-11_19h04.27.544,MotorSequenceLearning,2024.1.5,None,2024-10-11 19h04.31.260832 +0530
-50,x,22,0,88,0,,,,,204.0330268,,204.017522,204.0330268,205.0168601,205.0168601,205.0168601,205.0168601,205.0335288,206.0181462,206.0181462,206.5033283,x,1,0.472477,None,568810,1,2024-10-11_19h04.27.544,MotorSequenceLearning,2024.1.5,None,2024-10-11 19h04.31.260832 +0530
150,v,22,1,89,1,,,,,206.5185601,,206.5040689,206.5185601,207.5031934,207.5031934,207.5031934,207.5031934,207.5200978,208.5040148,208.5040148,208.705231,v,1,0.1953079,None,568810,1,2024-10-11_19h04.27.544,MotorSequenceLearning,2024.1.5,None,2024-10-11 19h04.31.260832 +0530
50,c,22,2,90,2,,,,,208.7211395,,208.7060906,208.7211395,209.705215,209.705215,209.705215,209.705215,209.7222032,210.7061901,210.7061901,210.7743381,c,1,0.0533147,None,568810,1,2024-10-11_19h04.27.544,MotorSequenceLearning,2024.1.5,None,2024-10-11 19h04.31.260832 +0530
-150,z,22,3,91,3,,,,,210.7898411,,210.7752238,210.7898411,211.7748435,211.7748435,211.7748435,211.7748435,211.7914241,212.7760112,212.7760112,213.0276569,z,1,0.2497556,None,568810,1,2024-10-11_19h04.27.544,MotorSequenceLearning,2024.1.5,None,2024-10-11 19h04.31.260832 +0530
-50,x,23,0,92,0,,,,,213.0423078,,213.0283349,213.0423078,214.0268185,214.0268185,214.0268185,214.0268185,214.0436251,215.0282245,215.0282245,215.2792591,x,1,0.2381806,None,568810,1,2024-10-11_19h04.27.544,MotorSequenceLearning,2024.1.5,None,2024-10-11 19h04.31.260832 +0530
150,v,23,1,93,1,,,,,215.2948744,,215.2801322,215.2948744,216.2961512,216.2961512,216.2961512,216.2961512,216.2961512,217.2805919,217.2805919,217.7490438,v,1,0.4587947,None,568810,1,2024-10-11_19h04.27.544,MotorSequenceLearning,2024.1.5,None,2024-10-11 19h04.31.260832 +0530
50,c,23,2,94,2,,,,,217.7642773,,217.7497338,217.7642773,218.7485899,218.7485899,218.7485899,218.7485899,218.7652196,219.7497242,219.7497242,220.0024116,c,1,0.2511292,None,568810,1,2024-10-11_19h04.27.544,MotorSequenceLearning,2024.1.5,None,2024-10-11 19h04.31.260832 +0530
-150,z,23,3,95,3,,,,,220.0167216,,220.0032377,220.0167216,221.0180864,221.0180864,221.0180864,221.0180864,221.0180864,222.0019534,222.0019534,222.2204716,z,1,0.2068868,None,568810,1,2024-10-11_19h04.27.544,MotorSequenceLearning,2024.1.5,None,2024-10-11 19h04.31.260832 +0530
-50,x,24,0,96,0,,,,,222.2359346,,222.2211162,222.2359346,223.2208268,223.2208268,223.2208268,223.2208268,223.2368624,224.221734,224.221734,224.4726237,x,1,0.2469605,None,568810,1,2024-10-11_19h04.27.544,MotorSequenceLearning,2024.1.5,None,2024-10-11 19h04.31.260832 +0530
150,v,24,1,97,1,,,,,224.4877578,,224.4733295,224.4877578,225.472617,225.472617,225.472617,225.472617,225.4898672,226.4737723,226.4737723,226.808959,v,1,0.3311108,None,568810,1,2024-10-11_19h04.27.544,MotorSequenceLearning,2024.1.5,None,2024-10-11 19h04.31.260832 +0530
50,c,24,2,98,2,,,,,226.8242517,,226.8097987,226.8242517,227.8085288,227.8085288,227.8085288,227.8085288,227.8251735,228.8102085,228.8102085,229.0779493,c,1,0.2526221,None,568810,1,2024-10-11_19h04.27.544,MotorSequenceLearning,2024.1.5,None,2024-10-11 19h04.31.260832 +0530
-150,z,24,3,99,3,,,,,229.0934839,,229.0787969,229.0934839,230.0776564,230.0776564,230.0776564,230.0776564,230.0944881,231.0792914,231.0792914,231.3806313,z,1,0.2923444,None,568810,1,2024-10-11_19h04.27.544,MotorSequenceLearning,2024.1.5,None,2024-10-11 19h04.31.260832 +0530
-50,x,25,0,100,0,,,,,231.3959157,,231.3812709,231.3959157,232.3808318,232.3808318,232.3808318,232.3808318,232.3974754,233.3813942,233.3813942,233.6995261,x,1,0.3083355,None,568810,1,2024-10-11_19h04.27.544,MotorSequenceLearning,2024.1.5,None,2024-10-11 19h04.31.260832 +0530
150,v,25,1,101,1,,,,,233.7148697,,233.7002502,233.7148697,234.6994654,234.6994654,234.6994654,234.6994654,234.7165848,235.7007148,235.7007148,236.0191629,v,1,0.3088691,None,568810,1,2024-10-11_19h04.27.544,MotorSequenceLearning,2024.1.5,None,2024-10-11 19h04.31.260832 +0530
50,c,25,2,102,2,,,,,236.0343572,,236.0199755,236.0343572,237.0191772,237.0191772,237.0191772,237.0191772,237.0353457,238.0197197,238.0197197,238.2717442,c,1,0.237395,None,568810,1,2024-10-11_19h04.27.544,MotorSequenceLearning,2024.1.5,None,2024-10-11 19h04.31.260832 +0530
-150,z,25,3,103,3,,,,,238.2870674,,238.2725132,238.2870674,239.2880659,239.2880659,239.2880659,239.2880659,239.2880659,240.2724643,240.2724643,240.5072525,z,1,0.2253787,None,568810,1,2024-10-11_19h04.27.544,MotorSequenceLearning,2024.1.5,None,2024-10-11 19h04.31.260832 +0530
-50,x,26,0,104,0,,,,,240.5225323,,240.5079841,240.5225323,241.5070017,241.5070017,241.5070017,241.5070017,241.5235338,242.5086731,242.5086731,242.7928981,x,1,0.2712428,None,568810,1,2024-10-11_19h04.27.544,MotorSequenceLearning,2024.1.5,None,2024-10-11 19h04.31.260832 +0530
150,v,26,1,105,1,,,,,242.8082542,,242.7935764,242.8082542,243.7930664,243.7930664,243.7930664,243.7930664,243.8097092,244.7941372,244.7941372,244.8952605,v,1,0.0921939,None,568810,1,2024-10-11_19h04.27.544,MotorSequenceLearning,2024.1.5,None,2024-10-11 19h04.31.260832 +0530
50,c,26,2,106,2,,,,,244.911447,,244.896112,244.911447,245.8952687,245.8952687,245.8952687,245.8952687,245.9120688,246.8964537,246.8964537,247.2317993,c,1,0.3241884,None,568810,1,2024-10-11_19h04.27.544,MotorSequenceLearning,2024.1.5,None,2024-10-11 19h04.31.260832 +0530
-150,z,26,3,107,3,,,,,247.2465878,,247.2329134,247.2465878,248.2479925,248.2479925,248.2479925,248.2479925,248.2479925,249.2322064,249.2322064,249.5002311,z,1,0.2623579,None,568810,1,2024-10-11_19h04.27.544,MotorSequenceLearning,2024.1.5,None,2024-10-11 19h04.31.260832 +0530
-50,x,27,0,108,0,,,,,249.5159503,,249.5009321,249.5159503,250.5007194,250.5007194,250.5007194,250.5007194,250.5171445,251.5013026,251.5013026,251.8698025,x,1,0.3619529,None,568810,1,2024-10-11_19h04.27.544,MotorSequenceLearning,2024.1.5,None,2024-10-11 19h04.31.260832 +0530
150,v,27,1,109,1,,,,,251.8852036,,251.870642,251.8852036,252.8694703,252.8694703,252.8694703,252.8694703,252.8861237,253.8710198,253.8710198,254.1560155,v,1,0.2826911,None,568810,1,2024-10-11_19h04.27.544,MotorSequenceLearning,2024.1.5,None,2024-10-11 19h04.31.260832 +0530
50,c,27,2,110,2,,,,,254.1707514,,254.1568387,254.1707514,255.1552138,255.1552138,255.1552138,255.1552138,255.1720976,256.1565718,256.1565718,256.3911493,c,1,0.2300107,None,568810,1,2024-10-11_19h04.27.544,MotorSequenceLearning,2024.1.5,None,2024-10-11 19h04.31.260832 +0530
-150,z,27,3,111,3,,,,,256.4069299,,256.3920436,256.4069299,257.391624,257.391624,257.391624,257.391624,257.4078666,258.392431,258.392431,258.6940913,z,1,0.2884956,None,568810,1,2024-10-11_19h04.27.544,MotorSequenceLearning,2024.1.5,None,2024-10-11 19h04.31.260832 +0530
-50,x,28,0,112,0,,,,,258.709669,,258.6947351,258.709669,259.6935254,259.6935254,259.6935254,259.6935254,259.7118844,260.6948248,260.6948248,261.0460099,x,1,0.344011,None,568810,1,2024-10-11_19h04.27.544,MotorSequenceLearning,2024.1.5,None,2024-10-11 19h04.31.260832 +0530
150,v,28,1,113,1,,,,,261.0618277,,261.0467844,261.0618277,262.0465699,262.0465699,262.0465699,262.0465699,262.0631991,263.0471678,263.0471678,263.3156771,v,1,0.253055,None,568810,1,2024-10-11_19h04.27.544,MotorSequenceLearning,2024.1.5,None,2024-10-11 19h04.31.260832 +0530
50,c,28,2,114,2,,,,,263.3311319,,263.3165247,263.3311319,264.3158947,264.3158947,264.3158947,264.3158947,264.3321134,265.3165803,265.3165803,265.601897,c,1,0.2718907,None,568810,1,2024-10-11_19h04.27.544,MotorSequenceLearning,2024.1.5,None,2024-10-11 19h04.31.260832 +0530
-150,z,28,3,115,3,,,,,265.6172732,,265.6027789,265.6172732,266.6014995,266.6014995,266.6014995,266.6014995,266.6190043,267.6032197,267.6032197,267.837449,z,1,0.2234992,None,568810,1,2024-10-11_19h04.27.544,MotorSequenceLearning,2024.1.5,None,2024-10-11 19h04.31.260832 +0530
-50,x,29,0,116,0,,,,,267.8527793,,267.8382416,267.8527793,268.8537333,268.8537333,268.8537333,268.8537333,268.8537333,269.838412,269.838412,270.0896489,x,1,0.2492886,None,568810,1,2024-10-11_19h04.27.544,MotorSequenceLearning,2024.1.5,None,2024-10-11 19h04.31.260832 +0530
150,v,29,1,117,1,,,,,270.1053008,,270.0902944,270.1053008,271.089688,271.089688,271.089688,271.089688,271.1069704,272.0908094,272.0908094,272.342388,v,1,0.2462066,None,568810,1,2024-10-11_19h04.27.544,MotorSequenceLearning,2024.1.5,None,2024-10-11 19h04.31.260832 +0530
50,c,29,2,118,2,,,,,272.3577403,,272.3430778,272.3577403,273.3425632,273.3425632,273.3425632,273.3425632,273.3594241,274.3430425,274.3430425,274.5951198,c,1,0.2438413,None,568810,1,2024-10-11_19h04.27.544,MotorSequenceLearning,2024.1.5,None,2024-10-11 19h04.31.260832 +0530
-150,z,29,3,119,3,,,,,274.610193,,274.5957541,274.610193,275.6111966,275.6111966,275.6111966,275.6111966,275.6111966,276.5959685,276.5959685,276.8472396,z,1,0.2379707,None,568810,1,2024-10-11_19h04.27.544,MotorSequenceLearning,2024.1.5,None,2024-10-11 19h04.31.260832 +0530
-50,x,30,0,120,0,,,,,276.8630158,,276.8480036,276.8630158,277.846997,277.846997,277.846997,277.846997,277.8640087,278.8487952,278.8487952,279.133389,x,1,0.2737828,None,568810,1,2024-10-11_19h04.27.544,MotorSequenceLearning,2024.1.5,None,2024-10-11 19h04.31.260832 +0530
150,v,30,1,121,1,,,,,279.1484429,,279.1340275,279.1484429,280.1329801,280.1329801,280.1329801,280.1329801,280.1496,281.1338823,281.1338823,281.4530185,v,1,0.314642,None,568810,1,2024-10-11_19h04.27.544,MotorSequenceLearning,2024.1.5,None,2024-10-11 19h04.31.260832 +0530
50,c,30,2,122,2,,,,,281.467834,,281.4536588,281.467834,282.4522876,282.4522876,282.4522876,282.4522876,282.4691164,283.453239,283.453239,283.638752,c,1,0.182073,None,568810,1,2024-10-11_19h04.27.544,MotorSequenceLearning,2024.1.5,None,2024-10-11 19h04.31.260832 +0530
-150,z,30,3,123,3,,,,,283.6535051,,283.6396687,283.6535051,284.6547369,284.6547369,284.6547369,284.6547369,284.6547369,285.6389855,285.6389855,285.890717,z,1,0.248596,None,568810,1,2024-10-11_19h04.27.544,MotorSequenceLearning,2024.1.5,None,2024-10-11 19h04.31.260832 +0530
-50,x,31,0,124,0,,,,,285.9055288,,285.8913572,285.9055288,286.8908432,286.8908432,286.8908432,286.8908432,286.9072754,287.8917197,287.8917197,288.2096195,x,1,0.3016849,None,568810,1,2024-10-11_19h04.27.544,MotorSequenceLearning,2024.1.5,None,2024-10-11 19h04.31.260832 +0530
150,v,31,1,125,1,,,,,288.226019,,288.2103575,288.226019,289.2098193,289.2098193,289.2098193,289.2098193,289.2266048,290.2105468,290.2105468,290.4619479,v,1,0.2343686,None,568810,1,2024-10-11_19h04.27.544,MotorSequenceLearning,2024.1.5,None,2024-10-11 19h04.31.260832 +0530
50,c,31,2,126,2,,,,,290.4775229,,290.4626229,290.4775229,291.4623677,291.4623677,291.4623677,291.4623677,291.4787622,292.4637237,292.4637237,292.7312839,c,1,0.2546121,None,568810,1,2024-10-11_19h04.27.544,MotorSequenceLearning,2024.1.5,None,2024-10-11 19h04.31.260832 +0530
-150,z,31,3,127,3,,,,,292.746666,,292.7321427,292.746666,293.7310588,293.7310588,293.7310588,293.7310588,293.7482713,294.7322116,294.7322116,295.0173605,z,1,0.277527,None,568810,1,2024-10-11_19h04.27.544,MotorSequenceLearning,2024.1.5,None,2024-10-11 19h04.31.260832 +0530
-50,x,32,0,128,0,,,,,295.0327433,,295.0180483,295.0327433,296.0176205,296.0176205,296.0176205,296.0176205,296.0334496,297.0187083,297.0187083,297.3196312,x,1,0.2876177,None,568810,1,2024-10-11_19h04.27.544,MotorSequenceLearning,2024.1.5,None,2024-10-11 19h04.31.260832 +0530
150,v,32,1,129,1,,,,,297.3352111,,297.3207863,297.3352111,298.3198405,298.3198405,298.3198405,298.3198405,298.3364548,299.3205947,299.3205947,299.5891709,v,1,0.2522682,None,568810,1,2024-10-11_19h04.27.544,MotorSequenceLearning,2024.1.5,None,2024-10-11 19h04.31.260832 +0530
50,c,32,2,130,2,,,,,299.6062766,,299.5898112,299.6062766,300.5887713,300.5887713,300.5887713,300.5887713,300.6054329,301.5906022,301.5906022,301.8577968,c,1,0.2568807,None,568810,1,2024-10-11_19h04.27.544,MotorSequenceLearning,2024.1.5,None,2024-10-11 19h04.31.260832 +0530
-150,z,32,3,131,3,,,,,301.8737858,,301.8584823,301.8737858,302.8579738,302.8579738,302.8579738,302.8579738,302.8745828,303.8591105,303.8591105,304.1443242,z,1,0.2819372,None,568810,1,2024-10-11_19h04.27.544,MotorSequenceLearning,2024.1.5,None,2024-10-11 19h04.31.260832 +0530
-50,x,33,0,132,0,,,,,304.1593791,,304.1450082,304.1593791,305.1437823,305.1437823,305.1437823,305.1437823,305.1604831,306.1445966,306.1445966,306.3965077,x,1,0.2499596,None,568810,1,2024-10-11_19h04.27.544,MotorSequenceLearning,2024.1.5,None,2024-10-11 19h04.31.260832 +0530
150,v,33,1,133,1,,,,,306.4116766,,306.397395,306.4116766,307.3961396,307.3961396,307.3961396,307.3961396,307.4131327,308.3971249,308.3971249,308.6490523,v,1,0.2434455,None,568810,1,2024-10-11_19h04.27.544,MotorSequenceLearning,2024.1.5,None,2024-10-11 19h04.31.260832 +0530
50,c,33,2,134,2,,,,,308.6642798,,308.6496861,308.6642798,309.6488298,309.6488298,309.6488298,309.6488298,309.6654379,310.6499319,310.6499319,310.9356044,c,1,0.2819611,None,568810,1,2024-10-11_19h04.27.544,MotorSequenceLearning,2024.1.5,None,2024-10-11 19h04.31.260832 +0530
-150,z,33,3,135,3,,,,,310.9503896,,310.9362932,310.9503896,311.9516319,311.9516319,311.9516319,311.9516319,311.9516319,312.9359271,312.9359271,313.0370301,z,1,0.093328,None,568810,1,2024-10-11_19h04.27.544,MotorSequenceLearning,2024.1.5,None,2024-10-11 19h04.31.260832 +0530
-50,x,34,0,136,0,,,,,313.0526041,,313.0379275,313.0526041,314.0369389,314.0369389,314.0369389,314.0369389,314.0536802,315.0381788,315.0381788,315.3062686,x,1,0.2609549,None,568810,1,2024-10-11_19h04.27.544,MotorSequenceLearning,2024.1.5,None,2024-10-11 19h04.31.260832 +0530
150,v,34,1,137,1,,,,,315.3219863,,315.3069275,315.3219863,316.3062296,316.3062296,316.3062296,316.3062296,316.3233073,317.3076258,317.3076258,317.5758994,v,1,0.2623643,None,568810,1,2024-10-11_19h04.27.544,MotorSequenceLearning,2024.1.5,None,2024-10-11 19h04.31.260832 +0530
50,c,34,2,138,2,,,,,317.5907741,,317.5768676,317.5907741,318.5915969,318.5915969,318.5915969,318.5915969,318.5915969,319.5766381,319.5766381,319.8453493,c,1,0.2669741,None,568810,1,2024-10-11_19h04.27.544,MotorSequenceLearning,2024.1.5,None,2024-10-11 19h04.31.260832 +0530
-150,z,34,3,139,3,,,,,319.8598929,,319.8460045,319.8598929,320.8614718,320.8614718,320.8614718,320.8614718,320.8614718,321.8455312,321.8455312,321.8968405,z,1,0.0459757,None,568810,1,2024-10-11_19h04.27.544,MotorSequenceLearning,2024.1.5,None,2024-10-11 19h04.31.260832 +0530
-50,x,35,0,140,0,,,,,321.9126382,,321.8977333,321.9126382,322.9155755,322.9155755,322.9155755,322.9155755,322.9155755,323.8982133,323.8982133,324.1502768,x,1,0.2469995,None,568810,1,2024-10-11_19h04.27.544,MotorSequenceLearning,2024.1.5,None,2024-10-11 19h04.31.260832 +0530
150,v,35,1,141,1,,,,,324.1648213,,324.1510515,324.1648213,325.1659496,325.1659496,325.1659496,325.1659496,325.1659496,326.1515928,326.1515928,326.284922,v,1,0.1261791,None,568810,1,2024-10-11_19h04.27.544,MotorSequenceLearning,2024.1.5,None,2024-10-11 19h04.31.260832 +0530
50,c,35,2,142,2,,,,,326.3003614,,326.2856193,326.3003614,327.2852633,327.2852633,327.2852633,327.2852633,327.3013322,328.2858303,328.2858303,328.5379625,c,1,0.2428937,None,568810,1,2024-10-11_19h04.27.544,MotorSequenceLearning,2024.1.5,None,2024-10-11 19h04.31.260832 +0530
-150,z,35,3,143,3,,,,,328.5530182,,328.5387506,328.5530182,329.5544969,329.5544969,329.5544969,329.5544969,329.5544969,330.5382536,330.5382536,330.823672,z,1,0.2768055,None,568810,1,2024-10-11_19h04.27.544,MotorSequenceLearning,2024.1.5,None,2024-10-11 19h04.31.260832 +0530
-50,x,36,0,144,0,,,,,330.8386537,,330.8243021,330.8386537,331.8235678,331.8235678,331.8235678,331.8235678,331.8401647,332.8247169,332.8247169,333.1091695,x,1,0.2743748,None,568810,1,2024-10-11_19h04.27.544,MotorSequenceLearning,2024.1.5,None,2024-10-11 19h04.31.260832 +0530
150,v,36,1,145,1,,,,,333.124497,,333.1098615,333.124497,334.1092783,334.1092783,334.1092783,334.1092783,334.125741,335.110581,335.110581,335.3620808,v,1,0.2481918,None,568810,1,2024-10-11_19h04.27.544,MotorSequenceLearning,2024.1.5,None,2024-10-11 19h04.31.260832 +0530
50,c,36,2,146,2,,,,,335.3769078,,335.3627226,335.3769078,336.3613791,336.3613791,336.3613791,336.3613791,336.3783577,337.3627327,337.3627327,337.5975602,c,1,0.2232396,None,568810,1,2024-10-11_19h04.27.544,MotorSequenceLearning,2024.1.5,None,2024-10-11 19h04.31.260832 +0530
-150,z,36,3,147,3,,,,,337.6129247,,337.5983619,337.6129247,338.5972109,338.5972109,338.5972109,338.5972109,338.6141564,339.5983985,339.5983985,339.7497935,z,1,0.1469377,None,568810,1,2024-10-11_19h04.27.544,MotorSequenceLearning,2024.1.5,None,2024-10-11 19h04.31.260832 +0530
-50,x,37,0,148,0,,,,,339.7653487,,339.7505336,339.7653487,340.7498813,340.7498813,340.7498813,340.7498813,340.7666005,341.7508429,341.7508429,342.3360372,x,1,0.5695131,None,568810,1,2024-10-11_19h04.27.544,MotorSequenceLearning,2024.1.5,None,2024-10-11 19h04.31.260832 +0530
150,v,37,1,149,1,,,,,342.3514737,,342.3367228,342.3514737,343.3360126,343.3360126,343.3360126,343.3360126,343.3533752,344.3370884,344.3370884,344.7392575,v,1,0.3992516,None,568810,1,2024-10-11_19h04.27.544,MotorSequenceLearning,2024.1.5,None,2024-10-11 19h04.31.260832 +0530
50,c,37,2,150,2,,,,,344.7541018,,344.7401439,344.7541018,345.7550111,345.7550111,345.7550111,345.7550111,345.7550111,346.7397969,346.7397969,347.0255383,c,1,0.2734083,None,568810,1,2024-10-11_19h04.27.544,MotorSequenceLearning,2024.1.5,None,2024-10-11 19h04.31.260832 +0530
-150,z,37,3,151,3,,,,,347.039854,,347.0261986,347.039854,348.0412503,348.0412503,348.0412503,348.0412503,348.0412503,349.0256251,349.0256251,349.293784,z,1,0.2591462,None,568810,1,2024-10-11_19h04.27.544,MotorSequenceLearning,2024.1.5,None,2024-10-11 19h04.31.260832 +0530
-50,x,38,0,152,0,,,,,349.3090863,,349.2944304,349.3090863,350.2935701,350.2935701,350.2935701,350.2935701,350.3104198,351.2949597,351.2949597,351.5627693,x,1,0.2620123,None,568810,1,2024-10-11_19h04.27.544,MotorSequenceLearning,2024.1.5,None,2024-10-11 19h04.31.260832 +0530
150,v,38,1,153,1,,,,,351.5781576,,351.5634088,351.5781576,352.5625759,352.5625759,352.5625759,352.5625759,352.5793918,353.5637992,353.5637992,353.8652546,v,1,0.2906992,None,568810,1,2024-10-11_19h04.27.544,MotorSequenceLearning,2024.1.5,None,2024-10-11 19h04.31.260832 +0530
50,c,38,2,154,2,,,,,353.8809176,,353.8659056,353.8809176,354.8653165,354.8653165,354.8653165,354.8653165,354.8818819,355.8666844,355.8666844,356.1343379,c,1,0.2601712,None,568810,1,2024-10-11_19h04.27.544,MotorSequenceLearning,2024.1.5,None,2024-10-11 19h04.31.260832 +0530
-150,z,38,3,155,3,,,,,356.1502622,,356.1351753,356.1502622,357.1345359,357.1345359,357.1345359,357.1345359,357.1514982,358.1357242,358.1357242,358.3868214,z,1,0.2461264,None,568810,1,2024-10-11_19h04.27.544,MotorSequenceLearning,2024.1.5,None,2024-10-11 19h04.31.260832 +0530
-50,x,39,0,156,0,,,,,358.4034007,,358.3874587,358.4034007,359.3869624,359.3869624,359.3869624,359.3869624,359.4036677,360.3883969,360.3883969,360.6403508,x,1,0.250433,None,568810,1,2024-10-11_19h04.27.544,MotorSequenceLearning,2024.1.5,None,2024-10-11 19h04.31.260832 +0530
150,v,39,1,157,1,,,,,360.6549217,,360.6409829,360.6549217,361.6559071,361.6559071,361.6559071,361.6559071,361.6559071,362.6404246,362.6404246,362.9254702,v,1,0.2739479,None,568810,1,2024-10-11_19h04.27.544,MotorSequenceLearning,2024.1.5,None,2024-10-11 19h04.31.260832 +0530
50,c,39,2,158,2,,,,,362.9406857,,362.9261267,362.9406857,363.925269,363.925269,363.925269,363.925269,363.9418134,364.9265756,364.9265756,365.1615549,c,1,0.2325708,None,568810,1,2024-10-11_19h04.27.544,MotorSequenceLearning,2024.1.5,None,2024-10-11 19h04.31.260832 +0530
-150,z,39,3,159,3,,,,,365.1765436,,365.162244,365.1765436,366.1775321,366.1775321,366.1775321,366.1775321,366.1775321,367.1620851,367.1620851,367.3635183,z,1,0.1922927,None,568810,1,2024-10-11_19h04.27.544,MotorSequenceLearning,2024.1.5,None,2024-10-11 19h04.31.260832 +0530
-50,x,40,0,160,0,,,,,367.3793729,,367.3643791,367.3793729,368.3632273,368.3632273,368.3632273,368.3632273,368.3799476,369.3645692,369.3645692,369.6493064,x,1,0.2797438,None,568810,1,2024-10-11_19h04.27.544,MotorSequenceLearning,2024.1.5,None,2024-10-11 19h04.31.260832 +0530
150,v,40,1,161,1,,,,,369.6646738,,369.6499721,369.6646738,370.6497532,370.6497532,370.6497532,370.6497532,370.6661489,371.6506337,371.6506337,371.9852971,v,1,0.3243675,None,568810,1,2024-10-11_19h04.27.544,MotorSequenceLearning,2024.1.5,None,2024-10-11 19h04.31.260832 +0530
50,c,40,2,162,2,,,,,372.0007763,,371.9862419,372.0007763,372.9850603,372.9850603,372.9850603,372.9850603,373.0019758,373.9865416,373.9865416,374.2377122,c,1,0.2436555,None,568810,1,2024-10-11_19h04.27.544,MotorSequenceLearning,2024.1.5,None,2024-10-11 19h04.31.260832 +0530
-150,z,40,3,163,3,,,,,374.253338,,374.2384568,374.253338,375.2377054,375.2377054,375.2377054,375.2377054,375.253935,376.2386681,376.2386681,376.5577622,z,1,0.3079463,None,568810,1,2024-10-11_19h04.27.544,MotorSequenceLearning,2024.1.5,None,2024-10-11 19h04.31.260832 +0530
-50,x,41,0,164,0,,,,,376.572383,,376.5584166,376.572383,377.5738508,377.5738508,377.5738508,377.5738508,377.5738508,378.5585064,378.5585064,378.8430846,x,1,0.2718645,None,568810,1,2024-10-11_19h04.27.544,MotorSequenceLearning,2024.1.5,None,2024-10-11 19h04.31.260832 +0530
150,v,41,1,165,1,,,,,378.8583649,,378.843765,378.8583649,379.8432891,379.8432891,379.8432891,379.8432891,379.8595635,380.844059,380.844059,381.0785619,v,1,0.2246204,None,568810,1,2024-10-11_19h04.27.544,MotorSequenceLearning,2024.1.5,None,2024-10-11 19h04.31.260832 +0530
50,c,41,2,166,2,,,,,381.0940917,,381.0791981,381.0940917,382.0787858,382.0787858,382.0787858,382.0787858,382.0956911,383.0796725,383.0796725,383.3480271,c,1,0.2653608,None,568810,1,2024-10-11_19h04.27.544,MotorSequenceLearning,2024.1.5,None,2024-10-11 19h04.31.260832 +0530
-150,z,41,3,167,3,,,,,383.3633308,,383.348662,383.3633308,384.3478723,384.3478723,384.3478723,384.3478723,384.3644642,385.3487867,385.3487867,385.7004338,z,1,0.3383186,None,568810,1,2024-10-11_19h04.27.544,MotorSequenceLearning,2024.1.5,None,2024-10-11 19h04.31.260832 +0530
-50,x,42,0,168,0,,,,,385.7159701,,385.7017619,385.7159701,386.7004011,386.7004011,386.7004011,386.7004011,386.7171581,387.7014456,387.7014456,387.9863202,x,1,0.2767435,None,568810,1,2024-10-11_19h04.27.544,MotorSequenceLearning,2024.1.5,None,2024-10-11 19h04.31.260832 +0530
150,v,42,1,169,1,,,,,388.0016309,,387.9870624,388.0016309,388.9863839,388.9863839,388.9863839,388.9863839,389.0029745,389.9878941,389.9878941,390.2559092,v,1,0.260442,None,568810,1,2024-10-11_19h04.27.544,MotorSequenceLearning,2024.1.5,None,2024-10-11 19h04.31.260832 +0530
50,c,42,2,170,2,,,,,390.2717316,,390.2566025,390.2717316,391.2722217,391.2722217,391.2722217,391.2722217,391.2722217,392.2566192,392.2566192,392.5244351,c,1,0.257468,None,568810,1,2024-10-11_19h04.27.544,MotorSequenceLearning,2024.1.5,None,2024-10-11 19h04.31.260832 +0530
-150,z,42,3,171,3,,,,,392.5400194,,392.5251396,392.5400194,393.5246644,393.5246644,393.5246644,393.5246644,393.5413742,394.5257078,394.5257078,394.8936363,z,1,0.351682,None,568810,1,2024-10-11_19h04.27.544,MotorSequenceLearning,2024.1.5,None,2024-10-11 19h04.31.260832 +0530
-50,x,43,0,172,0,,,,,394.9093713,,394.8943104,394.9093713,395.8937947,395.8937947,395.8937947,395.8937947,395.9104272,396.8947995,396.8947995,397.4636086,x,1,0.5601036,None,568810,1,2024-10-11_19h04.27.544,MotorSequenceLearning,2024.1.5,None,2024-10-11 19h04.31.260832 +0530
150,v,43,1,173,1,,,,,397.4788521,,397.4642393,397.4788521,398.4630808,398.4630808,398.4630808,398.4630808,398.480108,399.4645856,399.4645856,399.7326139,v,1,0.2628383,None,568810,1,2024-10-11_19h04.27.544,MotorSequenceLearning,2024.1.5,None,2024-10-11 19h04.31.260832 +0530
50,c,43,2,174,2,,,,,399.7478685,,399.7334753,399.7478685,400.7324747,400.7324747,400.7324747,400.7324747,400.7488822,401.7331941,401.7331941,402.0856603,c,1,0.3498762,None,568810,1,2024-10-11_19h04.27.544,MotorSequenceLearning,2024.1.5,None,2024-10-11 19h04.31.260832 +0530
-150,z,43,3,175,3,,,,,402.1006234,,402.0868412,402.1006234,403.1017632,403.1017632,403.1017632,403.1017632,403.1017632,404.0863752,404.0863752,404.3043588,z,1,0.208744,None,568810,1,2024-10-11_19h04.27.544,MotorSequenceLearning,2024.1.5,None,2024-10-11 19h04.31.260832 +0530
-50,x,44,0,176,0,,,,,404.31968,,404.3050418,404.31968,405.3040223,405.3040223,405.3040223,405.3040223,405.3211857,406.3054115,406.3054115,406.5899221,x,1,0.2707795,None,568810,1,2024-10-11_19h04.27.544,MotorSequenceLearning,2024.1.5,None,2024-10-11 19h04.31.260832 +0530
150,v,44,1,177,1,,,,,406.605557,,406.5905653,406.605557,407.5900389,407.5900389,407.5900389,407.5900389,407.6066437,408.5916435,408.5916435,408.8763224,v,1,0.2721917,None,568810,1,2024-10-11_19h04.27.544,MotorSequenceLearning,2024.1.5,None,2024-10-11 19h04.31.260832 +0530
50,c,44,2,178,2,,,,,408.8915336,,408.8771813,408.8915336,409.8925966,409.8925966,409.8925966,409.8925966,409.8925966,410.876804,410.876804,411.1454457,c,1,0.2514075,None,568810,1,2024-10-11_19h04.27.544,MotorSequenceLearning,2024.1.5,None,2024-10-11 19h04.31.260832 +0530
-150,z,44,3,179,3,,,,,411.1604638,,411.1461909,411.1604638,412.1453756,412.1453756,412.1453756,412.1453756,412.1620959,413.146255,413.146255,413.464338,z,1,0.3018002,None,568810,1,2024-10-11_19h04.27.544,MotorSequenceLearning,2024.1.5,None,2024-10-11 19h04.31.260832 +0530
-50,x,45,0,180,0,,,,,413.4797483,,413.4649747,413.4797483,414.4642541,414.4642541,414.4642541,414.4642541,414.4808007,415.4652063,415.4652063,415.7673648,x,1,0.2987908,None,568810,1,2024-10-11_19h04.27.544,MotorSequenceLearning,2024.1.5,None,2024-10-11 19h04.31.260832 +0530
150,v,45,1,181,1,,,,,415.7820949,,415.7682358,415.7820949,416.7669991,416.7669991,416.7669991,416.7669991,416.7833872,417.76809,417.76809,418.0359954,v,1,0.2557204,None,568810,1,2024-10-11_19h04.27.544,MotorSequenceLearning,2024.1.5,None,2024-10-11 19h04.31.260832 +0530
50,c,45,2,182,2,,,,,418.0514732,,418.0368237,418.0514732,419.0356971,419.0356971,419.0356971,419.0356971,419.0527311,420.0366168,420.0366168,420.3552263,c,1,0.3097232,None,568810,1,2024-10-11_19h04.27.544,MotorSequenceLearning,2024.1.5,None,2024-10-11 19h04.31.260832 +0530
-150,z,45,3,183,3,,,,,420.3710401,,420.3558637,420.3710401,421.3550208,421.3550208,421.3550208,421.3550208,421.3718638,422.356359,422.356359,422.6412162,z,1,0.2828243,None,568810,1,2024-10-11_19h04.27.544,MotorSequenceLearning,2024.1.5,None,2024-10-11 19h04.31.260832 +0530
-50,x,46,0,184,0,,,,,422.6564342,,422.6418497,422.6564342,423.6411306,423.6411306,423.6411306,423.6411306,423.6575117,424.6419881,424.6419881,424.9436573,x,1,0.2968293,None,568810,1,2024-10-11_19h04.27.544,MotorSequenceLearning,2024.1.5,None,2024-10-11 19h04.31.260832 +0530
150,v,46,1,185,1,,,,,424.959187,,424.9442887,424.959187,425.9438031,425.9438031,425.9438031,425.9438031,425.9605193,426.9439787,426.9439787,427.2294695,v,1,0.2732364,None,568810,1,2024-10-11_19h04.27.544,MotorSequenceLearning,2024.1.5,None,2024-10-11 19h04.31.260832 +0530
50,c,46,2,186,2,,,,,427.2451012,,427.2301672,427.2451012,428.2326702,428.2326702,428.2326702,428.2326702,428.2461047,429.2305163,429.2305163,429.5319534,c,1,0.2852155,None,568810,1,2024-10-11_19h04.27.544,MotorSequenceLearning,2024.1.5,None,2024-10-11 19h04.31.260832 +0530
-150,z,46,3,187,3,,,,,429.5473729,,429.5325859,429.5473729,430.5319691,430.5319691,430.5319691,430.5319691,430.5488415,431.5331701,431.5331701,431.8179168,z,1,0.2781081,None,568810,1,2024-10-11_19h04.27.544,MotorSequenceLearning,2024.1.5,None,2024-10-11 19h04.31.260832 +0530
-50,x,47,0,188,0,,,,,431.833529,,431.8185733,431.833529,432.817951,432.817951,432.817951,432.817951,432.8343284,433.8189988,433.8189988,434.1204746,x,1,0.2901707,None,568810,1,2024-10-11_19h04.27.544,MotorSequenceLearning,2024.1.5,None,2024-10-11 19h04.31.260832 +0530
150,v,47,1,189,1,,,,,434.1358624,,434.1212513,434.1358624,435.1199244,435.1199244,435.1199244,435.1199244,435.1363306,436.121469,436.121469,436.3732247,v,1,0.2496733,None,568810,1,2024-10-11_19h04.27.544,MotorSequenceLearning,2024.1.5,None,2024-10-11 19h04.31.260832 +0530
50,c,47,2,190,2,,,,,436.3882122,,436.3740358,436.3882122,437.3745568,437.3745568,437.3745568,437.3745568,437.3895831,438.374437,438.374437,438.6753563,c,1,0.2846213,None,568810,1,2024-10-11_19h04.27.544,MotorSequenceLearning,2024.1.5,None,2024-10-11 19h04.31.260832 +0530
-150,z,47,3,191,3,,,,,438.6908422,,438.6760183,438.6908422,439.6754548,439.6754548,439.6754548,439.6754548,439.6923961,440.6765393,440.6765393,440.9447796,z,1,0.2603034,None,568810,1,2024-10-11_19h04.27.544,MotorSequenceLearning,2024.1.5,None,2024-10-11 19h04.31.260832 +0530
-50,x,48,0,192,0,,,,,440.960643,,440.9455204,440.960643,441.9446152,441.9446152,441.9446152,441.9446152,441.9610043,442.9461798,442.9461798,443.2137551,x,1,0.2628078,None,568810,1,2024-10-11_19h04.27.544,MotorSequenceLearning,2024.1.5,None,2024-10-11 19h04.31.260832 +0530
150,v,48,1,193,1,,,,,443.2290867,,443.2143942,443.2290867,444.2138997,444.2138997,444.2138997,444.2138997,444.2306943,445.2145719,445.2145719,445.4830617,v,1,0.2583568,None,568810,1,2024-10-11_19h04.27.544,MotorSequenceLearning,2024.1.5,None,2024-10-11 19h04.31.260832 +0530
50,c,48,2,194,2,,,,,445.4985191,,445.4836936,445.4985191,446.4827827,446.4827827,446.4827827,446.4827827,446.4998117,447.4840148,447.4840148,447.7353467,c,1,0.2437855,None,568810,1,2024-10-11_19h04.27.544,MotorSequenceLearning,2024.1.5,None,2024-10-11 19h04.31.260832 +0530
-150,z,48,3,195,3,,,,,447.7507666,,447.7360189,447.7507666,448.7352333,448.7352333,448.7352333,448.7352333,448.7520074,449.7364944,449.7364944,450.0385754,z,1,0.2979112,None,568810,1,2024-10-11_19h04.27.544,MotorSequenceLearning,2024.1.5,None,2024-10-11 19h04.31.260832 +0530
-50,x,49,0,196,0,,,,,450.0539449,,450.0392247,450.0539449,451.0545625,451.0545625,451.0545625,451.0545625,451.0545625,452.0392303,452.0392303,452.3240113,x,1,0.2745815,None,568810,1,2024-10-11_19h04.27.544,MotorSequenceLearning,2024.1.5,None,2024-10-11 19h04.31.260832 +0530
150,v,49,1,197,1,,,,,452.3393605,,452.3248416,452.3393605,453.3235304,453.3235304,453.3235304,453.3235304,453.3404318,454.3251792,454.3251792,454.5762886,v,1,0.2484448,None,568810,1,2024-10-11_19h04.27.544,MotorSequenceLearning,2024.1.5,None,2024-10-11 19h04.31.260832 +0530
50,c,49,2,198,2,,,,,454.5919383,,454.5771406,454.5919383,455.5768854,455.5768854,455.5768854,455.5768854,455.5923442,456.5776624,456.5776624,456.8458223,c,1,0.2659997,None,568810,1,2024-10-11_19h04.27.544,MotorSequenceLearning,2024.1.5,None,2024-10-11 19h04.31.260832 +0530
-150,z,49,3,199,3,,,,,456.8611202,,456.8466463,456.8611202,457.8455489,457.8455489,457.8455489,457.8455489,457.8624119,458.846481,458.846481,459.114753,z,1,0.2540887,None,568810,1,2024-10-11_19h04.27.544,MotorSequenceLearning,2024.1.5,None,2024-10-11 19h04.31.260832 +0530
-50,x,,,,,0,0,0,0,459.129931,,459.1217343,459.129931,460.115224,460.115224,460.115224,460.115224,460.1313969,461.1155389,461.1155389,461.3839458,x,1,0.2646546,None,568810,1,2024-10-11_19h04.27.544,MotorSequenceLearning,2024.1.5,None,2024-10-11 19h04.31.260832 +0530
50,c,,,,,0,1,1,2,461.3993132,,461.3855587,461.3993132,462.3836101,462.3836101,462.3836101,462.3836101,462.4002366,463.3848869,463.3848869,463.6867293,v,0,0.2991235,None,568810,1,2024-10-11_19h04.27.544,MotorSequenceLearning,2024.1.5,None,2024-10-11 19h04.31.260832 +0530
150,v,,,,,0,2,2,1,463.7020776,,463.6876424,463.7020776,464.686254,464.686254,464.686254,464.686254,464.7028343,465.6872107,465.6872107,466.8230974,v,1,1.1214938,None,568810,1,2024-10-11_19h04.27.544,MotorSequenceLearning,2024.1.5,None,2024-10-11 19h04.31.260832 +0530
-50,x,,,,,0,3,3,0,466.8387694,,466.8239198,466.8387694,467.8229374,467.8229374,467.8229374,467.8229374,467.839643,468.8240077,468.8240077,469.9596688,x,1,1.1326149,None,568810,1,2024-10-11_19h04.27.544,MotorSequenceLearning,2024.1.5,None,2024-10-11 19h04.31.260832 +0530
-50,x,,,,,1,0,4,0,469.9754231,,469.9602955,469.9754231,470.9601689,470.9601689,470.9601689,470.9601689,470.9764561,471.9611346,471.9611346,472.7962224,x,1,0.8242474,None,568810,1,2024-10-11_19h04.27.544,MotorSequenceLearning,2024.1.5,None,2024-10-11 19h04.31.260832 +0530
150,v,,,,,1,1,5,1,472.8117551,,472.7968563,472.8117551,473.796271,473.796271,473.796271,473.796271,473.8129761,474.7974314,474.7974314,475.7160286,v,1,0.9111611,None,568810,1,2024-10-11_19h04.27.544,MotorSequenceLearning,2024.1.5,None,2024-10-11 19h04.31.260832 +0530
-150,z,,,,,1,2,6,3,475.731674,,475.716738,475.731674,476.7160517,476.7160517,476.7160517,476.7160517,476.7327768,477.7171393,477.7171393,478.6027535,z,1,0.8723134,None,568810,1,2024-10-11_19h04.27.544,MotorSequenceLearning,2024.1.5,None,2024-10-11 19h04.31.260832 +0530
-50,x,,,,,1,3,7,0,478.6183723,,478.603622,478.6183723,479.6025576,479.6025576,479.6025576,479.6025576,479.6193226,480.6034512,480.6034512,481.5892159,x,1,0.9806049,None,568810,1,2024-10-11_19h04.27.544,MotorSequenceLearning,2024.1.5,None,2024-10-11 19h04.31.260832 +0530
150,v,,,,,2,0,8,1,481.6047836,,481.5898504,481.6047836,482.5891905,482.5891905,482.5891905,482.5891905,482.6059358,483.5902046,483.5902046,484.5426989,v,1,0.9392234,None,568810,1,2024-10-11_19h04.27.544,MotorSequenceLearning,2024.1.5,None,2024-10-11 19h04.31.260832 +0530
-150,z,,,,,2,1,9,3,484.5590554,,484.5439256,484.5590554,485.5593419,485.5593419,485.5593419,485.5593419,485.5593419,486.5436294,486.5436294,487.295686,z,1,0.7414739,None,568810,1,2024-10-11_19h04.27.544,MotorSequenceLearning,2024.1.5,None,2024-10-11 19h04.31.260832 +0530
150,v,,,,,2,2,10,1,487.310708,,487.2964162,487.310708,488.2983165,488.2983165,488.2983165,488.2983165,488.3123375,489.2969666,489.2969666,490.2488049,v,1,0.9375879,None,568810,1,2024-10-11_19h04.27.544,MotorSequenceLearning,2024.1.5,None,2024-10-11 19h04.31.260832 +0530
-150,z,,,,,2,3,11,3,490.2645219,,490.2496658,490.2645219,491.2491487,491.2491487,491.2491487,491.2491487,491.2656186,492.2500364,492.2500364,492.9852053,z,1,0.7284894,None,568810,1,2024-10-11_19h04.27.544,MotorSequenceLearning,2024.1.5,None,2024-10-11 19h04.31.260832 +0530
50,c,,,,,3,0,12,2,493.000807,,492.9860421,493.000807,493.9855318,493.9855318,493.9855318,493.9855318,494.0021349,494.986354,494.986354,496.0891009,c,1,1.0966013,None,568810,1,2024-10-11_19h04.27.544,MotorSequenceLearning,2024.1.5,None,2024-10-11 19h04.31.260832 +0530
-150,z,,,,,3,1,13,3,496.1042843,,496.0899359,496.1042843,497.088624,497.088624,497.088624,497.088624,497.1053281,498.0897073,498.0897073,499.0919848,z,1,0.9860794,None,568810,1,2024-10-11_19h04.27.544,MotorSequenceLearning,2024.1.5,None,2024-10-11 19h04.31.260832 +0530
150,v,,,,,3,2,14,1,499.1074466,,499.0928174,499.1074466,500.0922756,500.0922756,500.0922756,500.0922756,500.1088533,501.0932658,501.0932658,502.6962411,v,1,1.5909728,None,568810,1,2024-10-11_19h04.27.544,MotorSequenceLearning,2024.1.5,None,2024-10-11 19h04.31.260832 +0530
-150,z,,,,,3,3,15,3,502.7115534,,502.6971149,502.7115534,503.6956661,503.6956661,503.6956661,503.6956661,503.7127823,504.6968296,504.6968296,505.4495992,z,1,0.7443714,None,568810,1,2024-10-11_19h04.27.544,MotorSequenceLearning,2024.1.5,None,2024-10-11 19h04.31.260832 +0530
-150,z,,,,,4,0,16,3,505.4644235,,505.4502495,505.4644235,506.4490225,506.4490225,506.4490225,506.4490225,506.4655307,507.4502101,507.4502101,508.2027342,z,1,0.7488014,None,568810,1,2024-10-11_19h04.27.544,MotorSequenceLearning,2024.1.5,None,2024-10-11 19h04.31.260832 +0530
-50,x,,,,,4,1,17,0,508.218188,,508.2034178,508.218188,509.2186207,509.2186207,509.2186207,509.2186207,509.2186207,510.2031848,510.2031848,510.871334,x,1,0.6544864,None,568810,1,2024-10-11_19h04.27.544,MotorSequenceLearning,2024.1.5,None,2024-10-11 19h04.31.260832 +0530
-150,z,,,,,4,2,18,3,510.8872612,,510.8723279,510.8872612,511.8715923,511.8715923,511.8715923,511.8715923,511.8880039,512.8725854,512.8725854,513.5747344,z,1,0.6859019,None,568810,1,2024-10-11_19h04.27.544,MotorSequenceLearning,2024.1.5,None,2024-10-11 19h04.31.260832 +0530
150,v,,,,,4,3,19,1,513.5910482,,513.5753617,513.5910482,514.574945,514.574945,514.574945,514.574945,514.5911839,515.5753802,515.5753802,517.078226,v,1,1.4916046,None,568810,1,2024-10-11_19h04.27.544,MotorSequenceLearning,2024.1.5,None,2024-10-11 19h04.31.260832 +0530
-50,x,,,,,5,0,20,0,517.093935,,517.0792681,517.093935,518.0784987,518.0784987,518.0784987,518.0784987,518.0949363,519.0793893,519.0793893,519.9154631,x,1,0.825984,None,568810,1,2024-10-11_19h04.27.544,MotorSequenceLearning,2024.1.5,None,2024-10-11 19h04.31.260832 +0530
-150,z,,,,,5,1,21,3,519.9305001,,519.9161388,519.9305001,520.9149829,520.9149829,520.9149829,520.9149829,520.9318403,521.915818,521.915818,522.8182307,z,1,0.8959749,None,568810,1,2024-10-11_19h04.27.544,MotorSequenceLearning,2024.1.5,None,2024-10-11 19h04.31.260832 +0530
50,c,,,,,5,2,22,2,522.8337893,,522.8189189,522.8337893,523.818628,523.818628,523.818628,523.818628,523.8351483,524.8195192,524.8195192,526.5896522,c,1,1.7666471,None,568810,1,2024-10-11_19h04.27.544,MotorSequenceLearning,2024.1.5,None,2024-10-11 19h04.31.260832 +0530
50,c,,,,,5,3,23,2,526.6043315,,526.5903387,526.6043315,527.5887769,527.5887769,527.5887769,527.5887769,527.6055096,528.5900718,528.5900718,529.7088867,c,1,1.1025021,None,568810,1,2024-10-11_19h04.27.544,MotorSequenceLearning,2024.1.5,None,2024-10-11 19h04.31.260832 +0530
-50,x,,,,,6,0,24,0,529.7251719,,529.7095175,529.7251719,530.708841,530.708841,530.708841,530.708841,530.7258407,531.7107502,531.7107502,532.9791079,x,1,1.2573505,None,568810,1,2024-10-11_19h04.27.544,MotorSequenceLearning,2024.1.5,None,2024-10-11 19h04.31.260832 +0530
-50,x,,,,,6,1,25,0,532.9951234,,532.9798964,532.9951234,533.97958,533.97958,533.97958,533.97958,533.9964253,534.9800753,534.9800753,535.6491588,x,1,0.6642271,None,568810,1,2024-10-11_19h04.27.544,MotorSequenceLearning,2024.1.5,None,2024-10-11 19h04.31.260832 +0530
150,v,,,,,6,2,26,1,535.6641931,,535.6497895,535.6641931,536.6487225,536.6487225,536.6487225,536.6487225,536.6656686,537.6498152,537.6498152,538.7689425,v,1,1.1032021,None,568810,1,2024-10-11_19h04.27.544,MotorSequenceLearning,2024.1.5,None,2024-10-11 19h04.31.260832 +0530
50,c,,,,,6,3,27,2,538.7847891,,538.769604,538.7847891,539.7691398,539.7691398,539.7691398,539.7691398,539.7856969,540.7700188,540.7700188,541.8898146,c,1,1.1047355,None,568810,1,2024-10-11_19h04.27.544,MotorSequenceLearning,2024.1.5,None,2024-10-11 19h04.31.260832 +0530
-150,z,,,,,7,0,28,3,541.9044228,,541.8906089,541.9044228,542.9057224,542.9057224,542.9057224,542.9057224,542.9057224,543.8901062,543.8901062,545.0431161,z,1,1.151715,None,568810,1,2024-10-11_19h04.27.544,MotorSequenceLearning,2024.1.5,None,2024-10-11 19h04.31.260832 +0530
-50,x,,,,,7,1,29,0,545.0581742,,545.0437764,545.0581742,546.042842,546.042842,546.042842,546.042842,546.0597006,547.0436244,547.0436244,547.86207,x,1,0.8075794,None,568810,1,2024-10-11_19h04.27.544,MotorSequenceLearning,2024.1.5,None,2024-10-11 19h04.31.260832 +0530
150,v,,,,,7,2,30,1,547.8776094,,547.8627389,547.8776094,548.8622536,548.8622536,548.8622536,548.8622536,548.8788369,549.8632562,549.8632562,550.7822586,v,1,0.904344,None,568810,1,2024-10-11_19h04.27.544,MotorSequenceLearning,2024.1.5,None,2024-10-11 19h04.31.260832 +0530
-150,z,,,,,7,3,31,3,550.7981661,,550.782933,550.7981661,551.7825752,551.7825752,551.7825752,551.7825752,551.7989047,552.7830658,552.7830658,553.5353064,z,1,0.7428489,None,568810,1,2024-10-11_19h04.27.544,MotorSequenceLearning,2024.1.5,None,2024-10-11 19h04.31.260832 +0530
-50,x,,,,,8,0,32,0,553.5506568,,553.5361378,553.5506568,554.5355835,554.5355835,554.5355835,554.5355835,554.5522643,555.5364116,555.5364116,556.255628,x,1,0.717383,None,568810,1,2024-10-11_19h04.27.544,MotorSequenceLearning,2024.1.5,None,2024-10-11 19h04.31.260832 +0530
150,v,,,,,8,1,33,1,556.2705906,,556.2562761,556.2705906,557.2547842,557.2547842,557.2547842,557.2547842,557.2719355,558.2558863,558.2558863,559.4256677,v,1,1.16648,None,568810,1,2024-10-11_19h04.27.544,MotorSequenceLearning,2024.1.5,None,2024-10-11 19h04.31.260832 +0530
50,c,,,,,8,2,34,2,559.4404083,,559.4264412,559.4404083,560.4284307,560.4284307,560.4284307,560.4284307,560.4419056,561.4263676,561.4263676,562.412063,c,1,0.9734953,None,568810,1,2024-10-11_19h04.27.544,MotorSequenceLearning,2024.1.5,None,2024-10-11 19h04.31.260832 +0530
-150,z,,,,,8,3,35,3,562.4275195,,562.4128301,562.4275195,563.4117217,563.4117217,563.4117217,563.4117217,563.4289523,564.4132167,564.4132167,565.4148427,z,1,0.9984932,None,568810,1,2024-10-11_19h04.27.544,MotorSequenceLearning,2024.1.5,None,2024-10-11 19h04.31.260832 +0530
-150,z,,,,,9,0,36,3,565.4303761,,565.4157242,565.4303761,566.4151469,566.4151469,566.4151469,566.4151469,566.4314556,567.4160572,567.4160572,568.4686876,z,1,1.0493953,None,568810,1,2024-10-11_19h04.27.544,MotorSequenceLearning,2024.1.5,None,2024-10-11 19h04.31.260832 +0530
50,c,,,,,9,1,37,2,568.4870204,,568.4693144,568.4870204,569.4683834,569.4683834,569.4683834,569.4683834,569.5017028,570.4693513,570.4693513,571.8390148,c,1,1.3554435,None,568810,1,2024-10-11_19h04.27.544,MotorSequenceLearning,2024.1.5,None,2024-10-11 19h04.31.260832 +0530
-50,x,,,,,9,2,38,0,571.8543863,,571.8397868,571.8543863,572.8389193,572.8389193,572.8389193,572.8389193,572.8556879,573.8396963,573.8396963,574.9419944,x,1,1.0852787,None,568810,1,2024-10-11_19h04.27.544,MotorSequenceLearning,2024.1.5,None,2024-10-11 19h04.31.260832 +0530
-50,x,,,,,9,3,39,0,574.9574011,,574.9426283,574.9574011,575.9421691,575.9421691,575.9421691,575.9421691,575.9587944,576.9432672,576.9432672,577.7290902,x,1,0.7833772,None,568810,1,2024-10-11_19h04.27.544,MotorSequenceLearning,2024.1.5,None,2024-10-11 19h04.31.260832 +0530
-50,x,,,,,10,0,40,0,577.744448,,577.7297818,577.744448,578.7287361,578.7287361,578.7287361,578.7287361,578.7455146,579.7295586,579.7295586,580.5148681,x,1,0.7707845,None,568810,1,2024-10-11_19h04.27.544,MotorSequenceLearning,2024.1.5,None,2024-10-11 19h04.31.260832 +0530
150,v,,,,,10,1,41,1,580.5304496,,580.5155118,580.5304496,581.5150581,581.5150581,581.5150581,581.5150581,581.5313114,582.516165,582.516165,583.4350608,v,1,0.9120317,None,568810,1,2024-10-11_19h04.27.544,MotorSequenceLearning,2024.1.5,None,2024-10-11 19h04.31.260832 +0530
50,c,,,,,10,2,42,2,583.4503444,,583.4357341,583.4503444,584.4346811,584.4346811,584.4346811,584.4346811,584.4513002,585.4357414,585.4357414,586.3891622,c,1,0.9501681,None,568810,1,2024-10-11_19h04.27.544,MotorSequenceLearning,2024.1.5,None,2024-10-11 19h04.31.260832 +0530
150,v,,,,,10,3,43,1,586.4038133,,586.3899687,586.4038133,587.4047995,587.4047995,587.4047995,587.4047995,587.4047995,588.3891616,588.3891616,589.2249589,v,1,0.8253451,None,568810,1,2024-10-11_19h04.27.544,MotorSequenceLearning,2024.1.5,None,2024-10-11 19h04.31.260832 +0530
-50,x,,,,,11,0,44,0,589.2398004,,589.2256026,589.2398004,590.2242929,590.2242929,590.2242929,590.2242929,590.2414691,591.2255339,591.2255339,592.3279665,x,1,1.0961884,None,568810,1,2024-10-11_19h04.27.544,MotorSequenceLearning,2024.1.5,None,2024-10-11 19h04.31.260832 +0530
50,c,,,,,11,1,45,2,592.3435515,,592.3288013,592.3435515,593.328112,593.328112,593.328112,593.328112,593.3448924,594.3292365,594.3292365,595.1478804,c,1,0.8102511,None,568810,1,2024-10-11_19h04.27.544,MotorSequenceLearning,2024.1.5,None,2024-10-11 19h04.31.260832 +0530
-50,x,,,,,11,2,46,0,595.1630632,,595.1487241,595.1630632,596.1478622,596.1478622,596.1478622,596.1478622,596.1645446,597.1491966,597.1491966,598.2340033,x,1,1.0703387,None,568810,1,2024-10-11_19h04.27.544,MotorSequenceLearning,2024.1.5,None,2024-10-11 19h04.31.260832 +0530
-150,z,,,,,11,3,47,3,598.2508646,,598.2346879,598.2508646,599.2344365,599.2344365,599.2344365,599.2344365,599.2509771,600.2355002,600.2355002,601.2049201,z,1,0.9518392,None,568810,1,2024-10-11_19h04.27.544,MotorSequenceLearning,2024.1.5,None,2024-10-11 19h04.31.260832 +0530
-150,z,,,,,12,0,48,3,601.2199294,,601.2056878,601.2199294,602.204112,602.204112,602.204112,602.204112,602.2209536,603.2057179,603.2057179,604.6249493,z,1,1.4071394,None,568810,1,2024-10-11_19h04.27.544,MotorSequenceLearning,2024.1.5,None,2024-10-11 19h04.31.260832 +0530
-150,z,,,,,12,1,49,3,604.6407502,,604.6255783,604.6407502,605.6247236,605.6247236,605.6247236,605.6247236,605.64171,606.6262696,606.6262696,607.2110678,z,1,0.5726547,None,568810,1,2024-10-11_19h04.27.544,MotorSequenceLearning,2024.1.5,None,2024-10-11 19h04.31.260832 +0530
150,v,,,,,12,2,50,1,607.2264829,,607.2119561,607.2264829,608.2113178,608.2113178,608.2113178,608.2113178,608.2277052,609.21184,609.21184,610.1474366,v,1,0.9239853,None,568810,1,2024-10-11_19h04.27.544,MotorSequenceLearning,2024.1.5,None,2024-10-11 19h04.31.260832 +0530
-150,z,,,,,12,3,51,3,610.163099,,610.1482669,610.163099,611.1478526,611.1478526,611.1478526,611.1478526,611.1642005,612.1485616,612.1485616,612.7841095,z,1,0.632006,None,568810,1,2024-10-11_19h04.27.544,MotorSequenceLearning,2024.1.5,None,2024-10-11 19h04.31.260832 +0530
-50,x,,,,,13,0,52,0,612.7995699,,612.7847969,612.7995699,613.7840109,613.7840109,613.7840109,613.7840109,613.8009314,614.7846769,614.7846769,615.7873334,x,1,1.0007428,None,568810,1,2024-10-11_19h04.27.544,MotorSequenceLearning,2024.1.5,None,2024-10-11 19h04.31.260832 +0530
-50,x,,,,,13,1,53,0,615.8027416,,615.7880057,615.8027416,616.7871528,616.7871528,616.7871528,616.7871528,616.8038698,617.7881295,617.7881295,618.707057,x,1,0.9100744,None,568810,1,2024-10-11_19h04.27.544,MotorSequenceLearning,2024.1.5,None,2024-10-11 19h04.31.260832 +0530
-150,z,,,,,13,2,54,3,618.7226427,,618.7077904,618.7226427,619.707108,619.707108,619.707108,619.707108,619.723805,620.7080522,620.7080522,621.6100013,z,1,0.8957881,None,568810,1,2024-10-11_19h04.27.544,MotorSequenceLearning,2024.1.5,None,2024-10-11 19h04.31.260832 +0530
50,c,,,,,13,3,55,2,621.6259567,,621.6107017,621.6259567,622.6103982,622.6103982,622.6103982,622.6103982,622.6271075,623.6111981,623.6111981,624.6635579,c,1,1.0490639,None,568810,1,2024-10-11_19h04.27.544,MotorSequenceLearning,2024.1.5,None,2024-10-11 19h04.31.260832 +0530
150,v,,,,,14,0,56,1,624.6791606,,624.6644289,624.6791606,625.6636309,625.6636309,625.6636309,625.6636309,625.6803827,626.6645488,626.6645488,627.8843957,v,1,1.2106137,None,568810,1,2024-10-11_19h04.27.544,MotorSequenceLearning,2024.1.5,None,2024-10-11 19h04.31.260832 +0530
-50,x,,,,,14,1,57,0,627.8993329,,627.8850413,627.8993329,628.9004747,628.9004747,628.9004747,628.9004747,628.9004747,629.8850857,629.8850857,630.8375937,x,1,0.9506746,None,568810,1,2024-10-11_19h04.27.544,MotorSequenceLearning,2024.1.5,None,2024-10-11 19h04.31.260832 +0530
-50,x,,,,,14,2,58,0,630.8531174,,630.8382414,630.8531174,631.8367346,631.8367346,631.8367346,631.8367346,631.853664,632.8384267,632.8384267,633.3561593,x,1,0.5024095,None,568810,1,2024-10-11_19h04.27.544,MotorSequenceLearning,2024.1.5,None,2024-10-11 19h04.31.260832 +0530
50,c,,,,,14,3,59,2,633.3719876,,633.3569807,633.3719876,634.3562149,634.3562149,634.3562149,634.3562149,634.3736642,635.3578821,635.3578821,636.4767277,c,1,1.1166277,None,568810,1,2024-10-11_19h04.27.544,MotorSequenceLearning,2024.1.5,None,2024-10-11 19h04.31.260832 +0530
150,v,,,,,15,0,60,1,636.492072,,636.4773747,636.492072,637.4768157,637.4768157,637.4768157,637.4768157,637.4934577,638.477889,638.477889,639.5969425,v,1,1.1024275,None,568810,1,2024-10-11_19h04.27.544,MotorSequenceLearning,2024.1.5,None,2024-10-11 19h04.31.260832 +0530
-50,x,,,,,15,1,61,0,639.6124561,,639.5976497,639.6124561,640.5966618,640.5966618,640.5966618,640.5966618,640.6136058,641.5980343,641.5980343,642.3161718,x,1,0.7064124,None,568810,1,2024-10-11_19h04.27.544,MotorSequenceLearning,2024.1.5,None,2024-10-11 19h04.31.260832 +0530
-150,z,,,,,15,2,62,3,642.3325552,,642.3167987,642.3325552,643.3163941,643.3163941,643.3163941,643.3163941,643.3334183,644.3176482,644.3176482,645.0198951,z,1,0.7004328,None,568810,1,2024-10-11_19h04.27.544,MotorSequenceLearning,2024.1.5,None,2024-10-11 19h04.31.260832 +0530
50,c,,,,,15,3,63,2,645.0345468,,645.020545,645.0345468,646.0194642,646.0194642,646.0194642,646.0194642,646.0364022,647.0205519,647.0205519,647.8890332,c,1,0.8596585,None,568810,1,2024-10-11_19h04.27.544,MotorSequenceLearning,2024.1.5,None,2024-10-11 19h04.31.260832 +0530
50,c,,,,,16,0,64,2,647.9045878,,647.8897473,647.9045878,648.8889246,648.8889246,648.8889246,648.8889246,648.9055236,649.8901832,649.8901832,650.6590818,c,1,0.7561041,None,568810,1,2024-10-11_19h04.27.544,MotorSequenceLearning,2024.1.5,None,2024-10-11 19h04.31.260832 +0530
50,c,,,,,16,1,65,2,650.6743389,,650.6597096,650.6743389,651.6590431,651.6590431,651.6590431,651.6590431,651.6754371,652.6600181,652.6600181,653.5625936,c,1,0.8923027,None,568810,1,2024-10-11_19h04.27.544,MotorSequenceLearning,2024.1.5,None,2024-10-11 19h04.31.260832 +0530
-150,z,,,,,16,2,66,3,653.5781588,,653.5633028,653.5781588,654.5626485,654.5626485,654.5626485,654.5626485,654.5783389,655.5640801,655.5640801,656.4818687,z,1,0.9067416,None,568810,1,2024-10-11_19h04.27.544,MotorSequenceLearning,2024.1.5,None,2024-10-11 19h04.31.260832 +0530
50,c,,,,,16,3,67,2,656.4975606,,656.4824958,656.4975606,657.4822308,657.4822308,657.4822308,657.4822308,657.4984323,658.4824961,658.4824961,659.3687211,c,1,0.8839208,None,568810,1,2024-10-11_19h04.27.544,MotorSequenceLearning,2024.1.5,None,2024-10-11 19h04.31.260832 +0530
-50,x,,,,,17,0,68,0,659.3838912,,659.3693523,659.3838912,660.3687935,660.3687935,660.3687935,660.3687935,660.3852989,661.3696618,661.3696618,662.1880934,x,1,0.8095991,None,568810,1,2024-10-11_19h04.27.544,MotorSequenceLearning,2024.1.5,None,2024-10-11 19h04.31.260832 +0530
-150,z,,,,,17,1,69,3,662.2037776,,662.1887469,662.2037776,663.1878763,663.1878763,663.1878763,663.1878763,663.2048089,664.1889246,664.1889246,664.8583773,z,1,0.6622868,None,568810,1,2024-10-11_19h04.27.544,MotorSequenceLearning,2024.1.5,None,2024-10-11 19h04.31.260832 +0530
-50,x,,,,,17,2,70,0,664.8736494,,664.8590511,664.8736494,665.8576151,665.8576151,665.8576151,665.8576151,665.874398,666.858855,666.858855,667.6609506,x,1,0.7970718,None,568810,1,2024-10-11_19h04.27.544,MotorSequenceLearning,2024.1.5,None,2024-10-11 19h04.31.260832 +0530
-150,z,,,,,17,3,71,3,667.6764819,,667.6621983,667.6764819,668.6612514,668.6612514,668.6612514,668.6612514,668.6775406,669.661998,669.661998,670.4807591,z,1,0.8035441,None,568810,1,2024-10-11_19h04.27.544,MotorSequenceLearning,2024.1.5,None,2024-10-11 19h04.31.260832 +0530
-150,z,,,,,18,0,72,3,670.4958866,,670.4813893,670.4958866,671.4807515,671.4807515,671.4807515,671.4807515,671.4975385,672.4816971,672.4816971,673.4173301,z,1,0.9301537,None,568810,1,2024-10-11_19h04.27.544,MotorSequenceLearning,2024.1.5,None,2024-10-11 19h04.31.260832 +0530
150,v,,,,,18,1,73,1,673.4325227,,673.4179649,673.4325227,674.4168361,674.4168361,674.4168361,674.4168361,674.4337511,675.4184385,675.4184385,676.2206686,v,1,0.7980517,None,568810,1,2024-10-11_19h04.27.544,MotorSequenceLearning,2024.1.5,None,2024-10-11 19h04.31.260832 +0530
-50,x,,,,,18,2,74,0,676.2359415,,676.2214541,676.2359415,677.2203199,677.2203199,677.2203199,677.2203199,677.2373103,678.2218284,678.2218284,679.2237828,x,1,0.9871155,None,568810,1,2024-10-11_19h04.27.544,MotorSequenceLearning,2024.1.5,None,2024-10-11 19h04.31.260832 +0530
-150,z,,,,,18,3,75,3,679.2389402,,679.2244114,679.2389402,680.2241268,680.2241268,680.2241268,680.2241268,680.2404678,681.2246524,681.2246524,681.9268328,z,1,0.6963924,None,568810,1,2024-10-11_19h04.27.544,MotorSequenceLearning,2024.1.5,None,2024-10-11 19h04.31.260832 +0530
50,c,,,,,19,0,76,2,681.9420207,,681.9275014,681.9420207,682.9266369,682.9266369,682.9266369,682.9266369,682.943536,683.9278101,683.9278101,684.9798935,c,1,1.03639,None,568810,1,2024-10-11_19h04.27.544,MotorSequenceLearning,2024.1.5,None,2024-10-11 19h04.31.260832 +0530
50,c,,,,,19,1,77,2,684.9955256,,684.9806541,684.9955256,685.9802638,685.9802638,685.9802638,685.9802638,685.99695,686.9813369,686.9813369,687.8835285,c,1,0.8969282,None,568810,1,2024-10-11_19h04.27.544,MotorSequenceLearning,2024.1.5,None,2024-10-11 19h04.31.260832 +0530
150,v,,,,,19,2,78,1,687.8986043,,687.8842715,687.8986043,688.8997902,688.8997902,688.8997902,688.8997902,688.8997902,689.8846164,689.8846164,690.553427,v,1,0.6670065,None,568810,1,2024-10-11_19h04.27.544,MotorSequenceLearning,2024.1.5,None,2024-10-11 19h04.31.260832 +0530
-150,z,,,,,19,3,79,3,690.5682023,,690.5541012,690.5682023,691.5530656,691.5530656,691.5530656,691.5530656,691.5693758,692.5544603,692.5544603,693.4060607,z,1,0.8490627,None,568810,1,2024-10-11_19h04.27.544,MotorSequenceLearning,2024.1.5,None,2024-10-11 19h04.31.260832 +0530
-50,x,,,,,20,0,80,0,693.4218128,,693.4068925,693.4218128,694.4057898,694.4057898,694.4057898,694.4057898,694.4225494,695.4063772,695.4063772,696.3929737,x,1,0.9799125,None,568810,1,2024-10-11_19h04.27.544,MotorSequenceLearning,2024.1.5,None,2024-10-11 19h04.31.260832 +0530
150,v,,,,,20,1,81,1,696.4084983,,696.3937061,696.4084983,697.392481,697.392481,697.392481,697.392481,697.4091399,698.3933474,698.3933474,699.1784494,v,1,0.7840917,None,568810,1,2024-10-11_19h04.27.544,MotorSequenceLearning,2024.1.5,None,2024-10-11 19h04.31.260832 +0530
50,c,,,,,20,2,82,2,699.1945783,,699.1791023,699.1945783,700.1790096,700.1790096,700.1790096,700.1790096,700.1951947,701.1799511,701.1799511,702.1653461,c,1,0.9724857,None,568810,1,2024-10-11_19h04.27.544,MotorSequenceLearning,2024.1.5,None,2024-10-11 19h04.31.260832 +0530
150,v,,,,,20,3,83,1,702.1803872,,702.1664592,702.1803872,703.1657772,703.1657772,703.1657772,703.1657772,703.1818068,704.1671559,704.1671559,704.7681402,v,1,0.5945472,None,568810,1,2024-10-11_19h04.27.544,MotorSequenceLearning,2024.1.5,None,2024-10-11 19h04.31.260832 +0530
50,c,,,,,21,0,84,2,704.7840915,,704.7687642,704.7840915,705.7684807,705.7684807,705.7684807,705.7684807,705.7853366,706.7699762,706.7699762,707.4712904,c,1,0.6932545,None,568810,1,2024-10-11_19h04.27.544,MotorSequenceLearning,2024.1.5,None,2024-10-11 19h04.31.260832 +0530
150,v,,,,,21,1,85,1,707.486998,,707.4719286,707.486998,708.4719376,708.4719376,708.4719376,708.4719376,708.4879128,709.4723535,709.4723535,710.3746455,v,1,0.8974437,None,568810,1,2024-10-11_19h04.27.544,MotorSequenceLearning,2024.1.5,None,2024-10-11 19h04.31.260832 +0530
50,c,,,,,21,2,86,2,710.3902927,,710.3753102,710.3902927,711.3744901,711.3744901,711.3744901,711.3744901,711.3912808,712.3760002,712.3760002,713.4115034,c,1,1.0280382,None,568810,1,2024-10-11_19h04.27.544,MotorSequenceLearning,2024.1.5,None,2024-10-11 19h04.31.260832 +0530
50,c,,,,,21,3,87,2,713.4266326,,713.412124,713.4266326,714.4113717,714.4113717,714.4113717,714.4113717,714.4283183,715.4122942,715.4122942,716.1637099,c,1,0.7492879,None,568810,1,2024-10-11_19h04.27.544,MotorSequenceLearning,2024.1.5,None,2024-10-11 19h04.31.260832 +0530
50,c,,,,,22,0,88,2,716.1795665,,716.1645118,716.1795665,717.1642991,717.1642991,717.1642991,717.1642991,717.1809389,718.1664174,718.1664174,719.0183455,c,1,0.8486414,None,568810,1,2024-10-11_19h04.27.544,MotorSequenceLearning,2024.1.5,None,2024-10-11 19h04.31.260832 +0530
-50,x,,,,,22,1,89,0,719.0329203,,719.0196238,719.0329203,720.0341601,720.0341601,720.0341601,720.0341601,720.0341601,721.0186907,721.0186907,722.1543713,x,1,1.1262624,None,568810,1,2024-10-11_19h04.27.544,MotorSequenceLearning,2024.1.5,None,2024-10-11 19h04.31.260832 +0530
150,v,,,,,22,2,90,1,722.1699498,,722.1550602,722.1699498,723.154376,723.154376,723.154376,723.154376,723.1709799,724.1550833,724.1550833,724.7905711,v,1,0.6193427,None,568810,1,2024-10-11_19h04.27.544,MotorSequenceLearning,2024.1.5,None,2024-10-11 19h04.31.260832 +0530
50,c,,,,,22,3,91,2,724.8062023,,724.7912237,724.8062023,725.7905696,725.7905696,725.7905696,725.7905696,725.8070609,726.7919502,726.7919502,727.7104256,c,1,0.9019555,None,568810,1,2024-10-11_19h04.27.544,MotorSequenceLearning,2024.1.5,None,2024-10-11 19h04.31.260832 +0530
150,v,,,,,23,0,92,1,727.7258123,,727.7111602,727.7258123,728.7107666,728.7107666,728.7107666,728.7107666,728.7271873,729.7114107,729.7114107,730.2972998,v,1,0.5762979,None,568810,1,2024-10-11_19h04.27.544,MotorSequenceLearning,2024.1.5,None,2024-10-11 19h04.31.260832 +0530
-50,x,,,,,23,1,93,0,730.3122935,,730.2979294,730.3122935,731.2965098,731.2965098,731.2965098,731.2965098,731.3131166,732.2975899,732.2975899,733.1166014,x,1,0.8124352,None,568810,1,2024-10-11_19h04.27.544,MotorSequenceLearning,2024.1.5,None,2024-10-11 19h04.31.260832 +0530
50,c,,,,,23,2,94,2,733.1317175,,733.1172778,733.1317175,734.116676,734.116676,734.116676,734.116676,734.1334243,735.1173324,735.1173324,735.8192688,c,1,0.6983821,None,568810,1,2024-10-11_19h04.27.544,MotorSequenceLearning,2024.1.5,None,2024-10-11 19h04.31.260832 +0530
50,c,,,,,23,3,95,2,735.835104,,735.8199101,735.835104,736.8192374,736.8192374,736.8192374,736.8192374,736.8358172,737.8205112,737.8205112,738.6562745,c,1,0.8317296,None,568810,1,2024-10-11_19h04.27.544,MotorSequenceLearning,2024.1.5,None,2024-10-11 19h04.31.260832 +0530
50,c,,,,,24,0,96,2,738.6713248,,738.6570467,738.6713248,739.6725917,739.6725917,739.6725917,739.6725917,739.6725917,740.6565752,740.6565752,742.1432845,c,1,1.4712567,None,568810,1,2024-10-11_19h04.27.544,MotorSequenceLearning,2024.1.5,None,2024-10-11 19h04.31.260832 +0530
-50,x,,,,,24,1,97,0,742.1585381,,742.1439063,742.1585381,743.1435089,743.1435089,743.1435089,743.1435089,743.1594647,744.1437517,744.1437517,744.9627869,x,1,0.8063574,None,568810,1,2024-10-11_19h04.27.544,MotorSequenceLearning,2024.1.5,None,2024-10-11 19h04.31.260832 +0530
-50,x,,,,,24,2,98,0,744.9783866,,744.9634258,744.9783866,745.9629988,745.9629988,745.9629988,745.9629988,745.9793009,746.9640618,746.9640618,747.666299,x,1,0.7008492,None,568810,1,2024-10-11_19h04.27.544,MotorSequenceLearning,2024.1.5,None,2024-10-11 19h04.31.260832 +0530
150,v,,,,,24,3,99,1,747.6814135,,747.6681682,747.6814135,748.6831872,748.6831872,748.6831872,748.6831872,748.6831872,749.6669137,749.6669137,750.3019954,v,1,0.624023,None,568810,1,2024-10-11_19h04.27.544,MotorSequenceLearning,2024.1.5,None,2024-10-11 19h04.31.260832 +0530
-50,x,,,,,25,0,100,0,750.317325,,750.3026656,750.317325,751.3026631,751.3026631,751.3026631,751.3026631,751.3184257,752.3031088,752.3031088,752.9044952,x,1,0.596458,None,568810,1,2024-10-11_19h04.27.544,MotorSequenceLearning,2024.1.5,None,2024-10-11 19h04.31.260832 +0530
-150,z,,,,,25,1,101,3,752.9199497,,752.9051329,752.9199497,753.9049347,753.9049347,753.9049347,753.9049347,753.9211925,754.9059403,754.9059403,756.1752131,z,1,1.2530394,None,568810,1,2024-10-11_19h04.27.544,MotorSequenceLearning,2024.1.5,None,2024-10-11 19h04.31.260832 +0530
150,v,,,,,25,2,102,1,756.1907737,,756.1758437,756.1907737,757.1752506,757.1752506,757.1752506,757.1752506,757.191487,758.1763573,758.1763573,758.7448558,v,1,0.5599183,None,568810,1,2024-10-11_19h04.27.544,MotorSequenceLearning,2024.1.5,None,2024-10-11 19h04.31.260832 +0530
-50,x,,,,,25,3,103,0,758.7601639,,758.7454816,758.7601639,759.7446028,759.7446028,759.7446028,759.7446028,759.761274,760.7456603,760.7456603,761.2310092,x,1,0.4820893,None,568810,1,2024-10-11_19h04.27.544,MotorSequenceLearning,2024.1.5,None,2024-10-11 19h04.31.260832 +0530
150,v,,,,,26,0,104,1,761.2465368,,761.2317921,761.2465368,762.2475543,762.2475543,762.2475543,762.2475543,762.2475543,763.2315616,763.2315616,763.766913,v,1,0.5240333,None,568810,1,2024-10-11_19h04.27.544,MotorSequenceLearning,2024.1.5,None,2024-10-11 19h04.31.260832 +0530
50,c,,,,,26,1,105,2,763.7821671,,763.7676547,763.7821671,764.7667842,764.7667842,764.7667842,764.7667842,764.7830875,765.7683702,765.7683702,766.4041711,c,1,0.632486,None,568810,1,2024-10-11_19h04.27.544,MotorSequenceLearning,2024.1.5,None,2024-10-11 19h04.31.260832 +0530
-150,z,,,,,26,2,106,3,766.4184205,,766.4048444,766.4184205,767.4199136,767.4199136,767.4199136,767.4199136,767.4199136,768.4048746,768.4048746,769.0060151,z,1,0.5868473,None,568810,1,2024-10-11_19h04.27.544,MotorSequenceLearning,2024.1.5,None,2024-10-11 19h04.31.260832 +0530
150,v,,,,,26,3,107,1,769.0217666,,769.0067683,769.0217666,770.005903,770.005903,770.005903,770.005903,770.0225555,771.0070073,771.0070073,771.5584899,v,1,0.541896,None,568810,1,2024-10-11_19h04.27.544,MotorSequenceLearning,2024.1.5,None,2024-10-11 19h04.31.260832 +0530
-50,x,,,,,27,0,108,0,771.5740394,,771.5591634,771.5740394,772.5587607,772.5587607,772.5587607,772.5587607,772.5752052,773.5597965,773.5597965,774.4455546,x,1,0.8768226,None,568810,1,2024-10-11_19h04.27.544,MotorSequenceLearning,2024.1.5,None,2024-10-11 19h04.31.260832 +0530
-50,x,,,,,27,1,109,0,774.4611525,,774.4462235,774.4611525,775.4453161,775.4453161,775.4453161,775.4453161,775.4618965,776.4465011,776.4465011,776.9980442,x,1,0.5354279,None,568810,1,2024-10-11_19h04.27.544,MotorSequenceLearning,2024.1.5,None,2024-10-11 19h04.31.260832 +0530
50,c,,,,,27,2,110,2,777.013508,,776.9988005,777.013508,777.9976995,777.9976995,777.9976995,777.9976995,778.015354,778.9992108,778.9992108,780.4187942,c,1,1.4165725,None,568810,1,2024-10-11_19h04.27.544,MotorSequenceLearning,2024.1.5,None,2024-10-11 19h04.31.260832 +0530
50,c,,,,,27,3,111,2,780.4336724,,780.419427,780.4336724,781.4183056,781.4183056,781.4183056,781.4183056,781.4353206,782.4199217,782.4199217,783.0050842,c,1,0.5819508,None,568810,1,2024-10-11_19h04.27.544,MotorSequenceLearning,2024.1.5,None,2024-10-11 19h04.31.260832 +0530
150,v,,,,,28,0,112,1,783.020361,,783.0057204,783.020361,784.0044788,784.0044788,784.0044788,784.0044788,784.0216269,785.0059622,785.0059622,785.5736196,v,1,0.5617935,None,568810,1,2024-10-11_19h04.27.544,MotorSequenceLearning,2024.1.5,None,2024-10-11 19h04.31.260832 +0530
-150,z,,,,,28,1,113,3,785.5898989,,785.5744896,785.5898989,786.5738785,786.5738785,786.5738785,786.5738785,786.5912585,787.5753672,787.5753672,788.2945277,z,1,0.7084002,None,568810,1,2024-10-11_19h04.27.544,MotorSequenceLearning,2024.1.5,None,2024-10-11 19h04.31.260832 +0530
150,v,,,,,28,2,114,1,788.3093796,,788.2951565,788.3093796,789.2940321,789.2940321,789.2940321,789.2940321,789.3104845,790.2949379,790.2949379,790.8632737,v,1,0.5563833,None,568810,1,2024-10-11_19h04.27.544,MotorSequenceLearning,2024.1.5,None,2024-10-11 19h04.31.260832 +0530
-50,x,,,,,28,3,115,0,790.8786826,,790.8641436,790.8786826,791.8632244,791.8632244,791.8632244,791.8632244,791.8800223,792.8642307,792.8642307,793.9838524,x,1,1.1097358,None,568810,1,2024-10-11_19h04.27.544,MotorSequenceLearning,2024.1.5,None,2024-10-11 19h04.31.260832 +0530
-150,z,,,,,29,0,116,3,793.9991449,,793.9846629,793.9991449,794.9831733,794.9831733,794.9831733,794.9831733,795.0003734,795.9844001,795.9844001,796.8539475,z,1,0.8650195,None,568810,1,2024-10-11_19h04.27.544,MotorSequenceLearning,2024.1.5,None,2024-10-11 19h04.31.260832 +0530
50,c,,,,,29,1,117,2,796.8685508,,796.8545721,796.8685508,797.8533954,797.8533954,797.8533954,797.8533954,797.8700002,798.854212,798.854212,800.0402895,c,1,1.1842672,None,568810,1,2024-10-11_19h04.27.544,MotorSequenceLearning,2024.1.5,None,2024-10-11 19h04.31.260832 +0530
150,v,,,,,29,2,118,1,800.0553646,,800.0411064,800.0553646,801.0402009,801.0402009,801.0402009,801.0402009,801.0568244,802.0418188,802.0418188,802.8764644,v,1,0.818821,None,568810,1,2024-10-11_19h04.27.544,MotorSequenceLearning,2024.1.5,None,2024-10-11 19h04.31.260832 +0530
-150,z,,,,,29,3,119,3,802.8925349,,802.8770983,802.8925349,803.8765602,803.8765602,803.8765602,803.8765602,803.8934545,804.8775493,804.8775493,805.5468148,z,1,0.6652622,None,568810,1,2024-10-11_19h04.27.544,MotorSequenceLearning,2024.1.5,None,2024-10-11 19h04.31.260832 +0530
-50,x,,,,,30,0,120,0,805.5618943,,805.5475695,805.5618943,806.5626576,806.5626576,806.5626576,806.5626576,806.5626576,807.5473149,807.5473149,808.3494018,x,1,0.7994882,None,568810,1,2024-10-11_19h04.27.544,MotorSequenceLearning,2024.1.5,None,2024-10-11 19h04.31.260832 +0530
-150,z,,,,,30,1,121,3,808.3645908,,808.3500239,808.3645908,809.3494593,809.3494593,809.3494593,809.3494593,809.3651463,810.350657,810.350657,811.2025823,z,1,0.8486815,None,568810,1,2024-10-11_19h04.27.544,MotorSequenceLearning,2024.1.5,None,2024-10-11 19h04.31.260832 +0530
150,v,,,,,30,2,122,1,811.2179533,,811.2037033,811.2179533,812.2025878,812.2025878,812.2025878,812.2025878,812.2188982,813.2034389,813.2034389,814.1057012,v,1,0.8964789,None,568810,1,2024-10-11_19h04.27.544,MotorSequenceLearning,2024.1.5,None,2024-10-11 19h04.31.260832 +0530
150,v,,,,,30,3,123,1,814.121057,,814.1064158,814.121057,815.1059059,815.1059059,815.1059059,815.1059059,815.1218016,816.1072782,816.1072782,816.8096571,v,1,0.692656,None,568810,1,2024-10-11_19h04.27.544,MotorSequenceLearning,2024.1.5,None,2024-10-11 19h04.31.260832 +0530
-150,z,,,,,31,0,124,3,816.8238889,,816.8103334,816.8238889,817.8254018,817.8254018,817.8254018,817.8254018,817.8254018,818.8099595,818.8099595,819.7783445,z,1,0.9545687,None,568810,1,2024-10-11_19h04.27.544,MotorSequenceLearning,2024.1.5,None,2024-10-11 19h04.31.260832 +0530
150,v,,,,,31,1,125,1,819.794018,,819.7789847,819.794018,820.7785296,820.7785296,820.7785296,820.7785296,820.7951081,821.7792783,821.7792783,822.9320177,v,1,1.1400244,None,568810,1,2024-10-11_19h04.27.544,MotorSequenceLearning,2024.1.5,None,2024-10-11 19h04.31.260832 +0530
50,c,,,,,31,2,126,2,822.9476856,,822.9326508,822.9476856,823.9317986,823.9317986,823.9317986,823.9317986,823.9483617,824.9333331,824.9333331,825.618378,c,1,0.6797009,None,568810,1,2024-10-11_19h04.27.544,MotorSequenceLearning,2024.1.5,None,2024-10-11 19h04.31.260832 +0530
50,c,,,,,31,3,127,2,825.6334514,,825.6192791,825.6334514,826.6188624,826.6188624,826.6188624,826.6188624,826.6352391,827.6198169,827.6198169,829.1723012,c,1,1.5438489,None,568810,1,2024-10-11_19h04.27.544,MotorSequenceLearning,2024.1.5,None,2024-10-11 19h04.31.260832 +0530
-50,x,,,,,32,0,128,0,829.1880314,,829.1731525,829.1880314,830.1720238,830.1720238,830.1720238,830.1720238,830.1887815,831.1731418,831.1731418,831.9585415,x,1,0.7784741,None,568810,1,2024-10-11_19h04.27.544,MotorSequenceLearning,2024.1.5,None,2024-10-11 19h04.31.260832 +0530
-150,z,,,,,32,1,129,3,831.9740033,,831.9591615,831.9740033,832.9583333,832.9583333,832.9583333,832.9583333,832.9753776,833.9595099,833.9595099,834.6281267,z,1,0.6531979,None,568810,1,2024-10-11_19h04.27.544,MotorSequenceLearning,2024.1.5,None,2024-10-11 19h04.31.260832 +0530
-50,x,,,,,32,2,130,0,834.6437473,,834.6289874,834.6437473,835.6281113,835.6281113,835.6281113,835.6281113,835.6453134,836.6293056,836.6293056,837.3481232,x,1,0.7168859,None,568810,1,2024-10-11_19h04.27.544,MotorSequenceLearning,2024.1.5,None,2024-10-11 19h04.31.260832 +0530
50,c,,,,,32,3,131,2,837.3637994,,837.3487448,837.3637994,838.3475255,838.3475255,838.3475255,838.3475255,838.3648373,839.3492119,839.3492119,840.3346211,c,1,0.9757022,None,568810,1,2024-10-11_19h04.27.544,MotorSequenceLearning,2024.1.5,None,2024-10-11 19h04.31.260832 +0530
-150,z,,,,,33,0,132,3,840.349908,,840.3352609,840.349908,841.3345407,841.3345407,841.3345407,841.3345407,841.350977,842.3358509,842.3358509,842.9542262,z,1,0.6056636,None,568810,1,2024-10-11_19h04.27.544,MotorSequenceLearning,2024.1.5,None,2024-10-11 19h04.31.260832 +0530
-150,z,,,,,33,1,133,3,842.970028,,842.9549664,842.970028,843.9538675,843.9538675,843.9538675,843.9538675,843.9708646,844.9556627,844.9556627,845.8408312,z,1,0.8833698,None,568810,1,2024-10-11_19h04.27.544,MotorSequenceLearning,2024.1.5,None,2024-10-11 19h04.31.260832 +0530
-150,z,,,,,33,2,134,3,845.8559136,,845.8415548,845.8559136,846.8406606,846.8406606,846.8406606,846.8406606,846.8572488,847.8416646,847.8416646,848.3435796,z,1,0.4962417,None,568810,1,2024-10-11_19h04.27.544,MotorSequenceLearning,2024.1.5,None,2024-10-11 19h04.31.260832 +0530
-150,z,,,,,33,3,135,3,848.3591766,,848.3442745,848.3591766,849.3436214,849.3436214,849.3436214,849.3436214,849.3600688,850.344206,850.344206,850.8637837,z,1,0.5087642,None,568810,1,2024-10-11_19h04.27.544,MotorSequenceLearning,2024.1.5,None,2024-10-11 19h04.31.260832 +0530
-150,z,,,,,34,0,136,3,850.8787876,,850.8644067,850.8787876,851.8796948,851.8796948,851.8796948,851.8796948,851.8796948,852.8638472,852.8638472,853.449371,z,1,0.5775896,None,568810,1,2024-10-11_19h04.27.544,MotorSequenceLearning,2024.1.5,None,2024-10-11 19h04.31.260832 +0530
150,v,,,,,34,1,137,1,853.4645555,,853.4500278,853.4645555,854.448684,854.448684,854.448684,854.448684,854.4655333,855.4501576,855.4501576,855.9016432,v,1,0.4407842,None,568810,1,2024-10-11_19h04.27.544,MotorSequenceLearning,2024.1.5,None,2024-10-11 19h04.31.260832 +0530
50,c,,,,,34,2,138,2,855.9169867,,855.9024025,855.9169867,856.9019861,856.9019861,856.9019861,856.9019861,856.9186604,857.9026689,857.9026689,858.9050433,c,1,0.991136,None,568810,1,2024-10-11_19h04.27.544,MotorSequenceLearning,2024.1.5,None,2024-10-11 19h04.31.260832 +0530
150,v,,,,,34,3,139,1,858.9205506,,858.9056852,858.9205506,859.9050052,859.9050052,859.9050052,859.9050052,859.9218434,860.9059812,860.9059812,861.6077598,v,1,0.6898324,None,568810,1,2024-10-11_19h04.27.544,MotorSequenceLearning,2024.1.5,None,2024-10-11 19h04.31.260832 +0530
-50,x,,,,,35,0,140,0,861.6233376,,861.6089356,861.6233376,862.6078138,862.6078138,862.6078138,862.6078138,862.6243874,863.6090033,863.6090033,864.3277412,x,1,0.7139786,None,568810,1,2024-10-11_19h04.27.544,MotorSequenceLearning,2024.1.5,None,2024-10-11 19h04.31.260832 +0530
-150,z,,,,,35,1,141,3,864.3429074,,864.328474,864.3429074,865.3277474,865.3277474,865.3277474,865.3277474,865.344452,866.3289132,866.3289132,867.0470208,z,1,0.7018503,None,568810,1,2024-10-11_19h04.27.544,MotorSequenceLearning,2024.1.5,None,2024-10-11 19h04.31.260832 +0530
-50,x,,,,,35,2,142,0,867.0626191,,867.047648,867.0626191,868.0471351,868.0471351,868.0471351,868.0471351,868.0639707,869.0487182,869.0487182,869.9351498,x,1,0.8847749,None,568810,1,2024-10-11_19h04.27.544,MotorSequenceLearning,2024.1.5,None,2024-10-11 19h04.31.260832 +0530
50,c,,,,,35,3,143,2,869.9493378,,869.9358475,869.9493378,870.9507826,870.9507826,870.9507826,870.9507826,870.9507826,871.9349938,871.9349938,872.9703122,c,1,1.0285936,None,568810,1,2024-10-11_19h04.27.544,MotorSequenceLearning,2024.1.5,None,2024-10-11 19h04.31.260832 +0530
-50,x,,,,,36,0,144,0,872.9857605,,872.9709535,872.9857605,873.970634,873.970634,873.970634,873.970634,873.987304,874.9712625,874.9712625,876.1238353,x,1,1.1380209,None,568810,1,2024-10-11_19h04.27.544,MotorSequenceLearning,2024.1.5,None,2024-10-11 19h04.31.260832 +0530
150,v,,,,,36,1,145,1,876.1392468,,876.1245129,876.1392468,877.1239287,877.1239287,877.1239287,877.1239287,877.1407405,878.125187,878.125187,879.1612999,v,1,1.0342881,None,568810,1,2024-10-11_19h04.27.544,MotorSequenceLearning,2024.1.5,None,2024-10-11 19h04.31.260832 +0530
-50,x,,,,,36,2,146,0,879.1759079,,879.1619853,879.1759079,880.1604256,880.1604256,880.1604256,880.1604256,880.1773799,881.1615813,881.1615813,882.3478435,x,1,1.1814281,None,568810,1,2024-10-11_19h04.27.544,MotorSequenceLearning,2024.1.5,None,2024-10-11 19h04.31.260832 +0530
50,c,,,,,36,3,147,2,882.3630753,,882.3484899,882.3630753,883.3478761,883.3478761,883.3478761,883.3478761,883.3637075,884.3485607,884.3485607,885.685224,c,1,1.3351126,None,568810,1,2024-10-11_19h04.27.544,MotorSequenceLearning,2024.1.5,None,2024-10-11 19h04.31.260832 +0530
-50,x,,,,,37,0,148,0,885.699879,,885.6860397,885.699879,886.7011217,886.7011217,886.7011217,886.7011217,886.7011217,887.6854761,887.6854761,888.4376035,x,1,0.7380623,None,568810,1,2024-10-11_19h04.27.544,MotorSequenceLearning,2024.1.5,None,2024-10-11 19h04.31.260832 +0530
50,c,,,,,37,1,149,2,888.4528658,,888.4382426,888.4528658,889.4372084,889.4372084,889.4372084,889.4372084,889.4539533,890.4384092,890.4384092,891.3407367,c,1,0.8942021,None,568810,1,2024-10-11_19h04.27.544,MotorSequenceLearning,2024.1.5,None,2024-10-11 19h04.31.260832 +0530
-150,z,,,,,37,2,150,3,891.3562658,,891.3413816,891.3562658,892.3410509,892.3410509,892.3410509,892.3410509,892.357327,893.342134,893.342134,894.1605583,z,1,0.8146505,None,568810,1,2024-10-11_19h04.27.544,MotorSequenceLearning,2024.1.5,None,2024-10-11 19h04.31.260832 +0530
150,v,,,,,37,3,151,1,894.1755363,,894.1612152,894.1755363,895.1602239,895.1602239,895.1602239,895.1602239,895.1774533,896.1612112,896.1612112,897.4809565,v,1,1.3037177,None,568810,1,2024-10-11_19h04.27.544,MotorSequenceLearning,2024.1.5,None,2024-10-11 19h04.31.260832 +0530
50,c,,,,,38,0,152,2,897.4967916,,897.4820563,897.4967916,898.4968476,898.4968476,898.4968476,898.4968476,898.4968476,899.4821952,899.4821952,900.7514231,c,1,1.2539658,None,568810,1,2024-10-11_19h04.27.544,MotorSequenceLearning,2024.1.5,None,2024-10-11 19h04.31.260832 +0530
-50,x,,,,,38,1,153,0,900.7669386,,900.7520736,900.7669386,901.7511453,901.7511453,901.7511453,901.7511453,901.7675719,902.7526641,902.7526641,903.704142,x,1,0.9373351,None,568810,1,2024-10-11_19h04.27.544,MotorSequenceLearning,2024.1.5,None,2024-10-11 19h04.31.260832 +0530
150,v,,,,,38,2,154,1,903.7195405,,903.7048221,903.7195405,904.704281,904.704281,904.704281,904.704281,904.720978,905.705319,905.705319,906.3569751,v,1,0.6468001,None,568810,1,2024-10-11_19h04.27.544,MotorSequenceLearning,2024.1.5,None,2024-10-11 19h04.31.260832 +0530
-50,x,,,,,38,3,155,0,906.3727004,,906.357606,906.3727004,907.3572812,907.3572812,907.3572812,907.3572812,907.373609,908.358538,908.358538,909.0276255,x,1,0.6625706,None,568810,1,2024-10-11_19h04.27.544,MotorSequenceLearning,2024.1.5,None,2024-10-11 19h04.31.260832 +0530
-150,z,,,,,39,0,156,3,909.0427268,,909.0283119,909.0427268,910.0433828,910.0433828,910.0433828,910.0433828,910.0433828,911.0280591,911.0280591,912.0134205,z,1,0.9696101,None,568810,1,2024-10-11_19h04.27.544,MotorSequenceLearning,2024.1.5,None,2024-10-11 19h04.31.260832 +0530
-50,x,,,,,39,1,157,0,912.0289016,,912.0140959,912.0289016,913.0133848,913.0133848,913.0133848,913.0133848,913.0299625,914.0142316,914.0142316,914.849945,x,1,0.8262481,None,568810,1,2024-10-11_19h04.27.544,MotorSequenceLearning,2024.1.5,None,2024-10-11 19h04.31.260832 +0530
-50,x,,,,,39,2,158,0,914.865329,,914.8506782,914.865329,915.8499486,915.8499486,915.8499486,915.8499486,915.866751,916.8507855,916.8507855,917.4691972,x,1,0.6161831,None,568810,1,2024-10-11_19h04.27.544,MotorSequenceLearning,2024.1.5,None,2024-10-11 19h04.31.260832 +0530
-50,x,,,,,39,3,159,0,917.4855057,,917.4698591,917.4855057,918.4695973,918.4695973,918.4695973,918.4695973,918.4859107,919.4710193,919.4710193,920.2556441,x,1,0.7715399,None,568810,1,2024-10-11_19h04.27.544,MotorSequenceLearning,2024.1.5,None,2024-10-11 19h04.31.260832 +0530
-150,z,,,,,40,0,160,3,920.2716399,,920.2562709,920.2716399,921.2559962,921.2559962,921.2559962,921.2559962,921.2723251,922.2570697,922.2570697,923.1426102,z,1,0.8777427,None,568810,1,2024-10-11_19h04.27.544,MotorSequenceLearning,2024.1.5,None,2024-10-11 19h04.31.260832 +0530
-50,x,,,,,40,1,161,0,923.1580777,,923.1432535,923.1580777,924.14251,924.14251,924.14251,924.14251,924.1592169,925.1436309,925.1436309,926.0957205,x,1,0.9497454,None,568810,1,2024-10-11_19h04.27.544,MotorSequenceLearning,2024.1.5,None,2024-10-11 19h04.31.260832 +0530
50,c,,,,,40,2,162,2,926.1114488,,926.0964296,926.1114488,927.095564,927.095564,927.095564,927.095564,927.1122413,928.096673,928.096673,928.932952,c,1,0.8324505,None,568810,1,2024-10-11_19h04.27.544,MotorSequenceLearning,2024.1.5,None,2024-10-11 19h04.31.260832 +0530
-150,z,,,,,40,3,163,3,928.9476794,,928.9338604,928.9476794,929.9485247,929.9485247,929.9485247,929.9485247,929.9485247,930.9330255,930.9330255,931.3679629,z,1,0.4297955,None,568810,1,2024-10-11_19h04.27.544,MotorSequenceLearning,2024.1.5,None,2024-10-11 19h04.31.260832 +0530
-150,z,,,,,41,0,164,3,931.3839713,,931.3686314,931.3839713,932.3679287,932.3679287,932.3679287,932.3679287,932.3845948,933.36893,933.36893,933.8710156,z,1,0.493997,None,568810,1,2024-10-11_19h04.27.544,MotorSequenceLearning,2024.1.5,None,2024-10-11 19h04.31.260832 +0530
